"","timestamp","id","version","session","session_type","level","level_type","global_trial_num","block_trial_num","trial_type","response_type","response_correct","response_time","ss_delay","diff","score"
"1","190801-13-02-13.162",15,"1.4.2",2,1,1,"AR_ONLY",1,1,"AR","RESPONSE","CORRECT",0.926025390625,0.400000005960464,0.126025378704071,0
"2","190801-13-02-15.509",15,"1.4.2",2,1,1,"AR_ONLY",2,2,"AR","RESPONSE","CORRECT",0.8232421875,0.400000005960464,0.023242175579071,767.578247070312
"3","190801-13-02-17.821",15,"1.4.2",2,1,1,"AR_ONLY",3,3,"AR","RESPONSE","CORRECT",0.7890625,0.400000005960464,-0.010937511920929,890.624877929688
"4","190801-13-02-20.222",15,"1.4.2",2,1,1,"AR_ONLY",4,4,"AR","RESPONSE","CORRECT",0.876953125,0.400000005960464,0.076953113079071,230.468872070312
"5","190801-13-02-22.493",15,"1.4.2",2,1,1,"AR_ONLY",5,5,"AR","RESPONSE","CORRECT",0.749755859375,0.400000005960464,-0.050244152545929,497.558471679688
"6","190801-13-02-24.806",15,"1.4.2",2,1,1,"AR_ONLY",6,6,"AR","RESPONSE","CORRECT",0.7890625,0.400000005960464,-0.010937511920929,890.624877929688
"7","190801-13-02-27.221",15,"1.4.2",2,1,1,"AR_ONLY",7,7,"AR","RESPONSE","CORRECT",0.891845703125,0.400000005960464,0.091845691204071,81.5430908203125
"8","190801-13-02-29.489",15,"1.4.2",2,1,1,"AR_ONLY",8,8,"AR","RESPONSE","CORRECT",0.744873046875,0.400000005960464,-0.055126965045929,448.730346679688
"9","190801-13-02-31.837",15,"1.4.2",2,1,1,"AR_ONLY",9,9,"AR","RESPONSE","CORRECT",0.828125,0.400000005960464,0.028124988079071,718.750122070312
"10","190801-13-02-34.149",15,"1.4.2",2,1,1,"AR_ONLY",10,10,"AR","RESPONSE","CORRECT",0.7890625,0.400000005960464,-0.010937511920929,890.624877929688
"11","190801-13-02-36.478",15,"1.4.2",2,1,1,"AR_ONLY",11,11,"AR","RESPONSE","CORRECT",0.808349609375,0.400000005960464,0.00834959745407104,916.504028320312
"12","190801-13-02-38.834",15,"1.4.2",2,1,1,"AR_ONLY",12,12,"AR","RESPONSE","CORRECT",0.838623046875,0.400000005960464,0.038623034954071,613.769653320312
"13","190801-13-02-41.196",15,"1.4.2",2,1,1,"AR_ONLY",13,13,"AR","RESPONSE","CORRECT",0.8427734375,0.400000005960464,0.042773425579071,572.265747070312
"14","190801-13-02-43.485",15,"1.4.2",2,1,1,"AR_ONLY",14,14,"AR","RESPONSE","CORRECT",0.764892578125,0.400000005960464,-0.035107433795929,648.925659179688
"15","190801-13-02-45.797",15,"1.4.2",2,1,1,"AR_ONLY",15,15,"AR","RESPONSE","CORRECT",0.788818359375,0.400000005960464,-0.011181652545929,888.183471679688
"16","190801-13-02-48.188",15,"1.4.2",2,1,1,"AR_ONLY",16,16,"AR","RESPONSE","CORRECT",0.867431640625,0.400000005960464,0.067431628704071,325.683715820312
"17","190801-13-02-50.564",15,"1.4.2",2,1,1,"AR_ONLY",17,17,"AR","RESPONSE","CORRECT",0.852783203125,0.400000005960464,0.052783191204071,472.168090820312
"18","190801-13-02-52.876",15,"1.4.2",2,1,1,"AR_ONLY",18,18,"AR","RESPONSE","CORRECT",0.7890625,0.400000005960464,-0.010937511920929,890.624877929688
"19","190801-13-02-55.199",15,"1.4.2",2,1,1,"AR_ONLY",19,19,"AR","RESPONSE","CORRECT",0.798828125,0.400000005960464,-0.00117188692092896,988.281127929688
"20","190801-13-02-57.526",15,"1.4.2",2,1,1,"AR_ONLY",20,20,"AR","RESPONSE","CORRECT",0.80859375,0.400000005960464,0.00859373807907104,914.062622070312
"21","190801-13-02-59.907",15,"1.4.2",2,1,1,"AR_ONLY",21,21,"AR","RESPONSE","CORRECT",0.85791015625,0.400000005960464,0.057910144329071,420.898559570312
"22","190801-13-03-02.206",15,"1.4.2",2,1,1,"AR_ONLY",22,22,"AR","RESPONSE","CORRECT",0.774169921875,0.400000005960464,-0.025830090045929,741.699096679688
"23","190801-13-03-04.484",15,"1.4.2",2,1,1,"AR_ONLY",23,23,"AR","RESPONSE","CORRECT",0.75439453125,0.400000005960464,-0.045605480670929,543.945190429688
"24","190801-13-03-06.876",15,"1.4.2",2,1,1,"AR_ONLY",24,24,"AR","RESPONSE","CORRECT",0.867431640625,0.400000005960464,0.067431628704071,325.683715820312
"25","190801-13-03-09.218",15,"1.4.2",2,1,1,"AR_ONLY",25,25,"AR","RESPONSE","CORRECT",0.81787109375,0.400000005960464,0.017871081829071,821.289184570312
"26","190801-13-03-11.526",15,"1.4.2",2,1,1,"AR_ONLY",26,26,"AR","RESPONSE","CORRECT",0.7841796875,0.400000005960464,-0.015820324420929,841.796752929688
"27","190801-13-03-13.868",15,"1.4.2",2,1,1,"AR_ONLY",27,27,"AR","RESPONSE","CORRECT",0.818603515625,0.400000005960464,0.018603503704071,813.964965820312
"28","190801-13-03-16.210",15,"1.4.2",2,1,1,"AR_ONLY",28,28,"AR","RESPONSE","CORRECT",0.8232421875,0.400000005960464,0.023242175579071,767.578247070312
"29","190801-13-03-18.594",15,"1.4.2",2,1,1,"AR_ONLY",29,29,"AR","RESPONSE","CORRECT",0.86328125,0.400000005960464,0.063281238079071,367.187622070312
"30","190801-13-03-20.932",15,"1.4.2",2,1,1,"AR_ONLY",30,30,"AR","RESPONSE","CORRECT",0.8134765625,0.400000005960464,0.013476550579071,865.234497070312
"31","190801-13-03-23.210",15,"1.4.2",2,1,1,"AR_ONLY",31,31,"AR","RESPONSE","CORRECT",0.759521484375,0.400000005960464,-0.040478527545929,595.214721679688
"32","190801-13-03-25.474",15,"1.4.2",2,1,1,"AR_ONLY",32,32,"AR","RESPONSE","CORRECT",0.74072265625,0.400000005960464,-0.059277355670929,407.226440429688
"33","190801-13-03-27.846",15,"1.4.2",2,1,1,"AR_ONLY",33,33,"AR","RESPONSE","CORRECT",0.847900390625,0.400000005960464,0.047900378704071,520.996215820312
"34","190801-13-03-30.138",15,"1.4.2",2,1,1,"AR_ONLY",34,34,"AR","RESPONSE","CORRECT",0.76904296875,0.400000005960464,-0.030957043170929,690.429565429688
"35","190801-13-03-32.486",15,"1.4.2",2,1,1,"AR_ONLY",35,35,"AR","RESPONSE","CORRECT",0.822998046875,0.400000005960464,0.022998034954071,770.019653320312
"36","190801-13-03-34.749",15,"1.4.2",2,1,1,"AR_ONLY",36,36,"AR","RESPONSE","CORRECT",0.74560546875,0.400000005960464,-0.054394543170929,456.054565429688
"37","190801-13-03-36.989",15,"1.4.2",2,1,1,"AR_ONLY",37,37,"AR","RESPONSE","CORRECT",0.7197265625,0.400000005960464,-0.080273449420929,197.265502929688
"38","190801-13-03-39.301",15,"1.4.2",2,1,1,"AR_ONLY",38,38,"AR","RESPONSE","CORRECT",0.78955078125,0.400000005960464,-0.010449230670929,895.507690429688
"39","190801-13-03-41.619",15,"1.4.2",2,1,1,"AR_ONLY",39,39,"AR","RESPONSE","CORRECT",0.798828125,0.400000005960464,-0.00117188692092896,988.281127929688
"40","190801-13-03-44.021",15,"1.4.2",2,1,1,"AR_ONLY",40,40,"AR","RESPONSE","CORRECT",0.877197265625,0.400000005960464,0.077197253704071,228.027465820312
"41","190801-13-03-46.373",15,"1.4.2",2,1,1,"AR_ONLY",41,41,"AR","RESPONSE","CORRECT",0.828369140625,0.400000005960464,0.028369128704071,716.308715820312
"42","190801-13-03-48.754",15,"1.4.2",2,1,1,"AR_ONLY",42,42,"AR","RESPONSE","CORRECT",0.857421875,0.400000005960464,0.057421863079071,425.781372070312
"43","190801-13-03-51.101",15,"1.4.2",2,1,1,"AR_ONLY",43,43,"AR","RESPONSE","CORRECT",0.828125,0.400000005960464,0.028124988079071,718.750122070312
"44","190801-13-03-53.428",15,"1.4.2",2,1,1,"AR_ONLY",44,44,"AR","RESPONSE","CORRECT",0.808349609375,0.400000005960464,0.00834959745407104,916.504028320312
"45","190801-13-03-55.717",15,"1.4.2",2,1,1,"AR_ONLY",45,45,"AR","RESPONSE","CORRECT",0.76513671875,0.400000005960464,-0.034863293170929,651.367065429688
"46","190801-13-03-58.005",15,"1.4.2",2,1,1,"AR_ONLY",46,46,"AR","RESPONSE","CORRECT",0.764404296875,0.400000005960464,-0.035595715045929,644.042846679688
"47","190801-13-04-00.337",15,"1.4.2",2,1,1,"AR_ONLY",47,47,"AR","RESPONSE","CORRECT",0.808349609375,0.400000005960464,0.00834959745407104,916.504028320312
"48","190801-13-04-02.709",15,"1.4.2",2,1,1,"AR_ONLY",48,48,"AR","RESPONSE","CORRECT",0.84765625,0.400000005960464,0.047656238079071,523.437622070312
"49","190801-13-04-04.964",15,"1.4.2",2,1,1,"AR_ONLY",49,49,"AR","RESPONSE","CORRECT",0.730224609375,0.400000005960464,-0.069775402545929,302.245971679688
"50","190801-13-04-07.311",15,"1.4.2",2,1,1,"AR_ONLY",50,50,"AR","RESPONSE","CORRECT",0.8232421875,0.400000005960464,0.023242175579071,767.578247070312
"51","190801-13-04-09.677",15,"1.4.2",2,1,1,"AR_ONLY",51,51,"AR","RESPONSE","CORRECT",0.843505859375,0.400000005960464,0.043505847454071,564.941528320312
"52","190801-13-04-12.069",15,"1.4.2",2,1,1,"AR_ONLY",52,52,"AR","RESPONSE","CORRECT",0.872314453125,0.400000005960464,0.072314441204071,276.855590820312
"53","190801-13-04-14.435",15,"1.4.2",2,1,1,"AR_ONLY",53,53,"AR","RESPONSE","CORRECT",0.843505859375,0.400000005960464,0.043505847454071,564.941528320312
"54","190801-13-04-16.763",15,"1.4.2",2,1,1,"AR_ONLY",54,54,"AR","RESPONSE","CORRECT",0.808349609375,0.400000005960464,0.00834959745407104,916.504028320312
"55","190801-13-04-19.106",15,"1.4.2",2,1,1,"AR_ONLY",55,55,"AR","RESPONSE","CORRECT",0.827880859375,0.400000005960464,0.027880847454071,721.191528320312
"56","190801-13-04-21.395",15,"1.4.2",2,1,1,"AR_ONLY",56,56,"AR","RESPONSE","CORRECT",0.77490234375,0.400000005960464,-0.025097668170929,749.023315429688
"57","190801-13-04-23.678",15,"1.4.2",2,1,1,"AR_ONLY",57,57,"AR","RESPONSE","CORRECT",0.759521484375,0.400000005960464,-0.040478527545929,595.214721679688
"58","190801-13-04-25.996",15,"1.4.2",2,1,1,"AR_ONLY",58,58,"AR","RESPONSE","CORRECT",0.79296875,0.400000005960464,-0.00703126192092896,929.687377929688
"59","190801-13-04-28.259",15,"1.4.2",2,1,1,"AR_ONLY",59,59,"AR","RESPONSE","CORRECT",0.739990234375,0.400000005960464,-0.060009777545929,399.902221679688
"60","190801-13-04-30.601",15,"1.4.2",2,1,1,"AR_ONLY",60,60,"AR","RESPONSE","CORRECT",0.818115234375,0.400000005960464,0.018115222454071,818.847778320312
"61","190801-13-04-32.949",15,"1.4.2",2,1,1,"AR_ONLY",61,61,"AR","RESPONSE","CORRECT",0.828125,0.400000005960464,0.028124988079071,718.750122070312
"62","190801-13-04-35.236",15,"1.4.2",2,1,1,"AR_ONLY",62,62,"AR","RESPONSE","CORRECT",0.769287109375,0.400000005960464,-0.030712902545929,692.870971679688
"63","190801-13-04-37.539",15,"1.4.2",2,1,1,"AR_ONLY",63,63,"AR","RESPONSE","CORRECT",0.779052734375,0.400000005960464,-0.020947277545929,790.527221679688
"64","190801-13-04-39.906",15,"1.4.2",2,1,1,"AR_ONLY",64,64,"AR","RESPONSE","CORRECT",0.8427734375,0.400000005960464,0.042773425579071,572.265747070312
"65","190801-13-04-42.268",15,"1.4.2",2,1,1,"AR_ONLY",65,65,"AR","RESPONSE","CORRECT",0.83740234375,0.400000005960464,0.037402331829071,625.976684570312
"66","190801-13-04-44.586",15,"1.4.2",2,1,1,"AR_ONLY",66,66,"AR","RESPONSE","CORRECT",0.79931640625,0.400000005960464,-0.000683605670928955,993.163940429688
"67","190801-13-04-46.977",15,"1.4.2",2,1,1,"AR_ONLY",67,67,"AR","RESPONSE","CORRECT",0.872314453125,0.400000005960464,0.072314441204071,276.855590820312
"68","190801-13-04-49.315",15,"1.4.2",2,1,1,"AR_ONLY",68,68,"AR","RESPONSE","CORRECT",0.812744140625,0.400000005960464,0.012744128704071,872.558715820312
"69","190801-13-04-51.662",15,"1.4.2",2,1,1,"AR_ONLY",69,69,"AR","RESPONSE","CORRECT",0.828125,0.400000005960464,0.028124988079071,718.750122070312
"70","190801-13-04-53.995",15,"1.4.2",2,1,1,"AR_ONLY",70,70,"AR","RESPONSE","CORRECT",0.8134765625,0.400000005960464,0.013476550579071,865.234497070312
"71","190801-13-04-56.308",15,"1.4.2",2,1,1,"AR_ONLY",71,71,"AR","RESPONSE","CORRECT",0.788818359375,0.400000005960464,-0.011181652545929,888.183471679688
"72","190801-13-04-58.606",15,"1.4.2",2,1,1,"AR_ONLY",72,72,"AR","RESPONSE","CORRECT",0.774169921875,0.400000005960464,-0.025830090045929,741.699096679688
"73","190801-13-05-00.899",15,"1.4.2",2,1,1,"AR_ONLY",73,73,"AR","RESPONSE","CORRECT",0.769287109375,0.400000005960464,-0.030712902545929,692.870971679688
"74","190801-13-05-03.276",15,"1.4.2",2,1,1,"AR_ONLY",74,74,"AR","RESPONSE","CORRECT",0.853271484375,0.400000005960464,0.053271472454071,467.285278320312
"75","190801-13-05-05.619",15,"1.4.2",2,1,1,"AR_ONLY",75,75,"AR","RESPONSE","CORRECT",0.817626953125,0.400000005960464,0.017626941204071,823.730590820312
"76","190801-13-05-07.931",15,"1.4.2",2,1,1,"AR_ONLY",76,76,"AR","RESPONSE","CORRECT",0.788818359375,0.400000005960464,-0.011181652545929,888.183471679688
"77","190801-13-05-10.259",15,"1.4.2",2,1,1,"AR_ONLY",77,77,"AR","RESPONSE","CORRECT",0.80419921875,0.400000005960464,0.00419920682907104,958.007934570312
"78","190801-13-05-12.645",15,"1.4.2",2,1,1,"AR_ONLY",78,78,"AR","RESPONSE","CORRECT",0.862548828125,0.400000005960464,0.062548816204071,374.511840820312
"79","190801-13-05-14.987",15,"1.4.2",2,1,1,"AR_ONLY",79,79,"AR","RESPONSE","CORRECT",0.818115234375,0.400000005960464,0.018115222454071,818.847778320312
"80","190801-13-05-17.314",15,"1.4.2",2,1,1,"AR_ONLY",80,80,"AR","RESPONSE","CORRECT",0.8037109375,0.400000005960464,0.00371092557907104,962.890747070312
"81","190801-13-05-19.630",15,"1.4.2",2,1,1,"AR_ONLY",81,81,"AR","RESPONSE","CORRECT",0.793701171875,0.400000005960464,-0.00629884004592896,937.011596679688
"82","190801-13-05-21.929",15,"1.4.2",2,1,1,"AR_ONLY",82,82,"AR","RESPONSE","CORRECT",0.779296875,0.400000005960464,-0.020703136920929,792.968627929688
"83","190801-13-05-24.262",15,"1.4.2",2,1,1,"AR_ONLY",83,83,"AR","RESPONSE","CORRECT",0.813232421875,0.400000005960464,0.013232409954071,867.675903320312
"84","190801-13-05-26.604",15,"1.4.2",2,1,1,"AR_ONLY",84,84,"AR","RESPONSE","CORRECT",0.8232421875,0.400000005960464,0.023242175579071,767.578247070312
"85","190801-13-05-28.922",15,"1.4.2",2,1,1,"AR_ONLY",85,85,"AR","RESPONSE","CORRECT",0.798583984375,0.400000005960464,-0.00141602754592896,985.839721679688
"86","190801-13-05-31.274",15,"1.4.2",2,1,1,"AR_ONLY",86,86,"AR","RESPONSE","CORRECT",0.828125,0.400000005960464,0.028124988079071,718.750122070312
"87","190801-13-05-33.596",15,"1.4.2",2,1,1,"AR_ONLY",87,87,"AR","RESPONSE","CORRECT",0.798828125,0.400000005960464,-0.00117188692092896,988.281127929688
"88","190801-13-05-35.949",15,"1.4.2",2,1,1,"AR_ONLY",88,88,"AR","RESPONSE","CORRECT",0.833251953125,0.400000005960464,0.033251941204071,667.480590820312
"89","190801-13-05-38.325",15,"1.4.2",2,1,1,"AR_ONLY",89,89,"AR","RESPONSE","CORRECT",0.8525390625,0.400000005960464,0.052539050579071,474.609497070312
"90","190801-13-05-40.653",15,"1.4.2",2,1,1,"AR_ONLY",90,90,"AR","RESPONSE","CORRECT",0.80859375,0.400000005960464,0.00859373807907104,914.062622070312
"91","190801-13-05-42.956",15,"1.4.2",2,1,1,"AR_ONLY",91,91,"AR","RESPONSE","CORRECT",0.7841796875,0.400000005960464,-0.015820324420929,841.796752929688
"92","190801-13-05-45.273",15,"1.4.2",2,1,1,"AR_ONLY",92,92,"AR","RESPONSE","CORRECT",0.794677734375,0.400000005960464,-0.00532227754592896,946.777221679688
"93","190801-13-05-47.586",15,"1.4.2",2,1,1,"AR_ONLY",93,93,"AR","RESPONSE","CORRECT",0.793701171875,0.400000005960464,-0.00629884004592896,937.011596679688
"94","190801-13-05-49.909",15,"1.4.2",2,1,1,"AR_ONLY",94,94,"AR","RESPONSE","CORRECT",0.802978515625,0.400000005960464,0.00297850370407104,970.214965820312
"95","190801-13-05-52.266",15,"1.4.2",2,1,1,"AR_ONLY",95,95,"AR","RESPONSE","CORRECT",0.832763671875,0.400000005960464,0.032763659954071,672.363403320312
"96","190801-13-05-54.570",15,"1.4.2",2,1,1,"AR_ONLY",96,96,"AR","RESPONSE","CORRECT",0.783203125,0.400000005960464,-0.016796886920929,832.031127929688
"97","190801-13-05-56.869",15,"1.4.2",2,1,1,"AR_ONLY",97,97,"AR","RESPONSE","CORRECT",0.774169921875,0.400000005960464,-0.025830090045929,741.699096679688
"98","190801-13-05-59.186",15,"1.4.2",2,1,1,"AR_ONLY",98,98,"AR","RESPONSE","CORRECT",0.7939453125,0.400000005960464,-0.00605469942092896,939.453002929688
"99","190801-13-06-01.530",15,"1.4.2",2,1,1,"AR_ONLY",99,99,"AR","RESPONSE","CORRECT",0.828125,0.400000005960464,0.028124988079071,718.750122070312
"100","190801-13-06-03.843",15,"1.4.2",2,1,1,"AR_ONLY",100,100,"AR","RESPONSE","CORRECT",0.788818359375,0.400000005960464,-0.011181652545929,888.183471679688
"101","190801-13-06-23.742",15,"1.4.2",2,1,2,"AR_ARI",101,1,"AR","RESPONSE","CORRECT",0.82373046875,0.400000005960464,0.023730456829071,762.695434570312
"102","190801-13-06-26.034",15,"1.4.2",2,1,2,"AR_ARI",102,2,"AR","RESPONSE","CORRECT",0.77001953125,0.400000005960464,-0.029980480670929,700.195190429688
"103","190801-13-06-28.357",15,"1.4.2",2,1,2,"AR_ARI",103,3,"AR","RESPONSE","CORRECT",0.79931640625,0.400000005960464,-0.000683605670928955,993.163940429688
"104","190801-13-06-30.699",15,"1.4.2",2,1,2,"AR_ARI",104,4,"AR","RESPONSE","CORRECT",0.818359375,0.400000005960464,0.018359363079071,816.406372070312
"105","190801-13-06-33.027",15,"1.4.2",2,1,2,"AR_ARI",105,5,"AR","RESPONSE","CORRECT",0.80859375,0.400000005960464,0.00859373807907104,914.062622070312
"106","190801-13-06-35.349",15,"1.4.2",2,1,2,"AR_ARI",106,6,"AR","RESPONSE","CORRECT",0.798828125,0.400000005960464,-0.00117188692092896,988.281127929688
"107","190801-13-06-37.701",15,"1.4.2",2,1,2,"AR_ARI",107,7,"AR","RESPONSE","CORRECT",0.8330078125,0.400000005960464,0.033007800579071,669.921997070312
"108","190801-13-06-39.970",15,"1.4.2",2,1,2,"AR_ARI",108,8,"AR","RESPONSE","CORRECT",0.744873046875,0.400000005960464,-0.055126965045929,448.730346679688
"109","190801-13-06-42.253",15,"1.4.2",2,1,2,"AR_ARI",109,9,"AR","RESPONSE","CORRECT",0.759521484375,0.400000005960464,-0.040478527545929,595.214721679688
"110","190801-13-06-44.586",15,"1.4.2",2,1,2,"AR_ARI",110,10,"AR","RESPONSE","CORRECT",0.812744140625,0.400000005960464,0.012744128704071,872.558715820312
"111","190801-13-06-46.884",15,"1.4.2",2,1,2,"AR_ARI",111,11,"AR","RESPONSE","CORRECT",0.77490234375,0.400000005960464,-0.025097668170929,749.023315429688
"112","190801-13-06-49.133",15,"1.4.2",2,1,2,"AR_ARI",112,12,"AR","RESPONSE","CORRECT",0.725341796875,0.400000005960464,-0.074658215045929,253.417846679688
"113","190801-13-06-51.661",15,"1.4.2",2,1,2,"AR_ARI",113,13,"ARI","NO_RESPONSE","CORRECT",1.0048828125,0.420000016689301,1000,600
"114","190801-13-06-54.019",15,"1.4.2",2,1,2,"AR_ARI",114,14,"AR","RESPONSE","CORRECT",0.8330078125,0.420000016689301,0.033007800579071,669.921997070312
"115","190801-13-06-56.546",15,"1.4.2",2,1,2,"AR_ARI",115,15,"ARI","NO_RESPONSE","CORRECT",1.0048828125,0.440000027418137,1000,620
"116","190801-13-06-58.884",15,"1.4.2",2,1,2,"AR_ARI",116,16,"AR","RESPONSE","CORRECT",0.8134765625,0.440000027418137,0.013476550579071,865.234497070312
"117","190801-13-07-01.261",15,"1.4.2",2,1,2,"AR_ARI",117,17,"AR","RESPONSE","CORRECT",0.8525390625,0.440000027418137,0.052539050579071,474.609497070312
"118","190801-13-07-03.574",15,"1.4.2",2,1,2,"AR_ARI",118,18,"AR","RESPONSE","CORRECT",0.7939453125,0.440000027418137,-0.00605469942092896,939.453002929688
"119","190801-13-07-05.930",15,"1.4.2",2,1,2,"AR_ARI",119,19,"AR","RESPONSE","CORRECT",0.837890625,0.440000027418137,0.037890613079071,621.093872070312
"120","190801-13-07-08.322",15,"1.4.2",2,1,2,"AR_ARI",120,20,"AR","RESPONSE","CORRECT",0.8671875,0.440000027418137,0.067187488079071,328.125122070312
"121","190801-13-07-10.649",15,"1.4.2",2,1,2,"AR_ARI",121,21,"AR","RESPONSE","CORRECT",0.80859375,0.440000027418137,0.00859373807907104,914.062622070312
"122","190801-13-07-13.171",15,"1.4.2",2,1,2,"AR_ARI",122,22,"ARI","NO_RESPONSE","CORRECT",1.00439453125,0.460000038146973,1000,640
"123","190801-13-07-15.695",15,"1.4.2",2,1,2,"AR_ARI",123,23,"ARI","NO_RESPONSE","CORRECT",1.00439453125,0.480000048875809,1000,660
"124","190801-13-07-18.013",15,"1.4.2",2,1,2,"AR_ARI",124,24,"AR","RESPONSE","CORRECT",0.798095703125,0.480000048875809,-0.00190430879592896,980.956909179688
"125","190801-13-07-20.353",15,"1.4.2",2,1,2,"AR_ARI",125,25,"AR","RESPONSE","CORRECT",0.818603515625,0.480000048875809,0.018603503704071,813.964965820312
"126","190801-13-07-22.681",15,"1.4.2",2,1,2,"AR_ARI",126,26,"AR","RESPONSE","CORRECT",0.802734375,0.480000048875809,0.00273436307907104,972.656372070312
"127","190801-13-07-25.032",15,"1.4.2",2,1,2,"AR_ARI",127,27,"AR","RESPONSE","CORRECT",0.828125,0.480000048875809,0.028124988079071,718.750122070312
"128","190801-13-07-27.345",15,"1.4.2",2,1,2,"AR_ARI",128,28,"AR","RESPONSE","CORRECT",0.793701171875,0.480000048875809,-0.00629884004592896,937.011596679688
"129","190801-13-07-29.659",15,"1.4.2",2,1,2,"AR_ARI",129,29,"AR","RESPONSE","CORRECT",0.788818359375,0.480000048875809,-0.011181652545929,888.183471679688
"130","190801-13-07-31.996",15,"1.4.2",2,1,2,"AR_ARI",130,30,"AR","RESPONSE","CORRECT",0.813720703125,0.480000048875809,0.013720691204071,862.793090820312
"131","190801-13-07-34.348",15,"1.4.2",2,1,2,"AR_ARI",131,31,"AR","RESPONSE","CORRECT",0.828857421875,0.480000048875809,0.028857409954071,711.425903320312
"132","190801-13-07-36.876",15,"1.4.2",2,1,2,"AR_ARI",132,32,"ARI","NO_RESPONSE","CORRECT",1.00439453125,0.500000059604645,1000,680.000061035156
"133","190801-13-07-39.405",15,"1.4.2",2,1,2,"AR_ARI",133,33,"ARI","NO_RESPONSE","CORRECT",1.004638671875,0.520000040531158,1000,700.000061035156
"134","190801-13-07-41.737",15,"1.4.2",2,1,2,"AR_ARI",134,34,"AR","RESPONSE","CORRECT",0.80859375,0.520000040531158,0.00859373807907104,914.062622070312
"135","190801-13-07-44.051",15,"1.4.2",2,1,2,"AR_ARI",135,35,"AR","RESPONSE","CORRECT",0.788818359375,0.520000040531158,-0.011181652545929,888.183471679688
"136","190801-13-07-46.412",15,"1.4.2",2,1,2,"AR_ARI",136,36,"AR","RESPONSE","CORRECT",0.837890625,0.520000040531158,0.037890613079071,621.093872070312
"137","190801-13-07-48.739",15,"1.4.2",2,1,2,"AR_ARI",137,37,"AR","RESPONSE","CORRECT",0.80859375,0.520000040531158,0.00859373807907104,914.062622070312
"138","190801-13-07-51.266",15,"1.4.2",2,1,2,"AR_ARI",138,38,"ARI","NO_RESPONSE","CORRECT",1.00390625,0.540000021457672,1000,720.000061035156
"139","190801-13-07-53.585",15,"1.4.2",2,1,2,"AR_ARI",139,39,"AR","RESPONSE","CORRECT",0.793701171875,0.540000021457672,-0.00629884004592896,937.011596679688
"140","190801-13-07-55.908",15,"1.4.2",2,1,2,"AR_ARI",140,40,"AR","RESPONSE","CORRECT",0.8037109375,0.540000021457672,0.00371092557907104,962.890747070312
"141","190801-13-07-58.265",15,"1.4.2",2,1,2,"AR_ARI",141,41,"AR","RESPONSE","CORRECT",0.832763671875,0.540000021457672,0.032763659954071,672.363403320312
"142","190801-13-08-00.640",15,"1.4.2",2,1,2,"AR_ARI",142,42,"AR","RESPONSE","CORRECT",0.852783203125,0.540000021457672,0.052783191204071,472.168090820312
"143","190801-13-08-02.968",15,"1.4.2",2,1,2,"AR_ARI",143,43,"AR","RESPONSE","CORRECT",0.803466796875,0.540000021457672,0.00346678495407104,965.332153320312
"144","190801-13-08-05.316",15,"1.4.2",2,1,2,"AR_ARI",144,44,"AR","RESPONSE","CORRECT",0.82861328125,0.540000021457672,0.028613269329071,713.867309570312
"145","190801-13-08-07.653",15,"1.4.2",2,1,2,"AR_ARI",145,45,"AR","RESPONSE","CORRECT",0.81884765625,0.540000021457672,0.018847644329071,811.523559570312
"146","190801-13-08-09.907",15,"1.4.2",2,1,2,"AR_ARI",146,46,"AR","RESPONSE","CORRECT",0.734130859375,0.540000021457672,-0.065869152545929,341.308471679688
"147","190801-13-08-12.268",15,"1.4.2",2,1,2,"AR_ARI",147,47,"AR","RESPONSE","CORRECT",0.837890625,0.540000021457672,0.037890613079071,621.093872070312
"148","190801-13-08-14.596",15,"1.4.2",2,1,2,"AR_ARI",148,48,"AR","RESPONSE","CORRECT",0.808349609375,0.540000021457672,0.00834959745407104,916.504028320312
"149","190801-13-08-16.923",15,"1.4.2",2,1,2,"AR_ARI",149,49,"AR","RESPONSE","CORRECT",0.8037109375,0.540000021457672,0.00371092557907104,962.890747070312
"150","190801-13-08-19.447",15,"1.4.2",2,1,2,"AR_ARI",150,50,"ARI","NO_RESPONSE","CORRECT",1.0048828125,0.560000002384186,1000,740
"151","190801-13-08-21.974",15,"1.4.2",2,1,2,"AR_ARI",151,51,"ARI","NO_RESPONSE","CORRECT",1.00439453125,0.579999983310699,1000,760
"152","190801-13-08-24.400",15,"1.4.2",2,1,2,"AR_ARI",152,52,"AR","RESPONSE","CORRECT",0.901611328125,0.579999983310699,0.101611316204071,0
"153","190801-13-08-26.714",15,"1.4.2",2,1,2,"AR_ARI",153,53,"AR","RESPONSE","CORRECT",0.788818359375,0.579999983310699,-0.011181652545929,888.183471679688
"154","190801-13-08-29.036",15,"1.4.2",2,1,2,"AR_ARI",154,54,"AR","RESPONSE","CORRECT",0.798583984375,0.579999983310699,-0.00141602754592896,985.839721679688
"155","190801-13-08-31.368",15,"1.4.2",2,1,2,"AR_ARI",155,55,"AR","RESPONSE","CORRECT",0.808349609375,0.579999983310699,0.00834959745407104,916.504028320312
"156","190801-13-08-33.897",15,"1.4.2",2,1,2,"AR_ARI",156,56,"ARI","NO_RESPONSE","CORRECT",1.00439453125,0.599999964237213,1000,780
"157","190801-13-08-36.224",15,"1.4.2",2,1,2,"AR_ARI",157,57,"AR","RESPONSE","CORRECT",0.8037109375,0.599999964237213,0.00371092557907104,962.890747070312
"158","190801-13-08-38.546",15,"1.4.2",2,1,2,"AR_ARI",158,58,"AR","RESPONSE","CORRECT",0.798095703125,0.599999964237213,-0.00190430879592896,980.956909179688
"159","190801-13-08-40.899",15,"1.4.2",2,1,2,"AR_ARI",159,59,"AR","RESPONSE","CORRECT",0.828125,0.599999964237213,0.028124988079071,718.750122070312
"160","190801-13-08-43.427",15,"1.4.2",2,1,2,"AR_ARI",160,60,"ARI","NO_RESPONSE","CORRECT",1.0048828125,0.619999945163727,1000,799.999938964844
"161","190801-13-08-45.769",15,"1.4.2",2,1,2,"AR_ARI",161,61,"ARI","RESPONSE","INCORRECT",0.818115234375,0.599999964237213,-1000,-580.000061035156
"162","190801-13-08-48.293",15,"1.4.2",2,1,2,"AR_ARI",162,62,"AR","NO_RESPONSE","INCORRECT",1.004638671875,0.599999964237213,-1000,-250
"163","190801-13-08-50.617",15,"1.4.2",2,1,2,"AR_ARI",163,63,"AR","RESPONSE","CORRECT",0.798583984375,0.599999964237213,-0.00141602754592896,985.839721679688
"164","190801-13-08-52.914",15,"1.4.2",2,1,2,"AR_ARI",164,64,"AR","RESPONSE","CORRECT",0.774658203125,0.599999964237213,-0.025341808795929,746.581909179688
"165","190801-13-08-55.291",15,"1.4.2",2,1,2,"AR_ARI",165,65,"AR","RESPONSE","CORRECT",0.853271484375,0.599999964237213,0.053271472454071,467.285278320312
"166","190801-13-08-57.624",15,"1.4.2",2,1,2,"AR_ARI",166,66,"AR","RESPONSE","CORRECT",0.813720703125,0.599999964237213,0.013720691204071,862.793090820312
"167","190801-13-08-59.937",15,"1.4.2",2,1,2,"AR_ARI",167,67,"AR","RESPONSE","CORRECT",0.7939453125,0.599999964237213,-0.00605469942092896,939.453002929688
"168","190801-13-09-02.289",15,"1.4.2",2,1,2,"AR_ARI",168,68,"AR","RESPONSE","CORRECT",0.828125,0.599999964237213,0.028124988079071,718.750122070312
"169","190801-13-09-04.576",15,"1.4.2",2,1,2,"AR_ARI",169,69,"AR","RESPONSE","CORRECT",0.764404296875,0.599999964237213,-0.035595715045929,644.042846679688
"170","190801-13-09-07.095",15,"1.4.2",2,1,2,"AR_ARI",170,70,"ARI","NO_RESPONSE","CORRECT",1.00439453125,0.619999945163727,1000,799.999938964844
"171","190801-13-09-09.447",15,"1.4.2",2,1,2,"AR_ARI",171,71,"ARI","RESPONSE","INCORRECT",0.828125,0.599999964237213,-1000,-580.000061035156
"172","190801-13-09-11.795",15,"1.4.2",2,1,2,"AR_ARI",172,72,"AR","RESPONSE","CORRECT",0.82275390625,0.599999964237213,0.022753894329071,772.461059570312
"173","190801-13-09-14.322",15,"1.4.2",2,1,2,"AR_ARI",173,73,"ARI","NO_RESPONSE","CORRECT",1.00439453125,0.619999945163727,1000,799.999938964844
"174","190801-13-09-16.723",15,"1.4.2",2,1,2,"AR_ARI",174,74,"AR","RESPONSE","CORRECT",0.877197265625,0.619999945163727,0.077197253704071,228.027465820312
"175","190801-13-09-19.120",15,"1.4.2",2,1,2,"AR_ARI",175,75,"AR","RESPONSE","CORRECT",0.88134765625,0.619999945163727,0.081347644329071,186.523559570312
"176","190801-13-09-21.466",15,"1.4.2",2,1,2,"AR_ARI",176,76,"AR","RESPONSE","CORRECT",0.823974609375,0.619999945163727,0.023974597454071,760.254028320312
"177","190801-13-09-23.744",15,"1.4.2",2,1,2,"AR_ARI",177,77,"AR","RESPONSE","CORRECT",0.7587890625,0.619999945163727,-0.041210949420929,587.890502929688
"178","190801-13-09-26.042",15,"1.4.2",2,1,2,"AR_ARI",178,78,"AR","RESPONSE","CORRECT",0.774169921875,0.619999945163727,-0.025830090045929,741.699096679688
"179","190801-13-09-28.409",15,"1.4.2",2,1,2,"AR_ARI",179,79,"AR","RESPONSE","CORRECT",0.84814453125,0.619999945163727,0.048144519329071,518.554809570312
"180","190801-13-09-30.747",15,"1.4.2",2,1,2,"AR_ARI",180,80,"ARI","RESPONSE","INCORRECT",0.8134765625,0.599999964237213,-1000,-580.000061035156
"181","190801-13-09-33.275",15,"1.4.2",2,1,2,"AR_ARI",181,81,"ARI","NO_RESPONSE","CORRECT",1.00439453125,0.619999945163727,1000,799.999938964844
"182","190801-13-09-35.643",15,"1.4.2",2,1,2,"AR_ARI",182,82,"AR","RESPONSE","CORRECT",0.852783203125,0.619999945163727,0.052783191204071,472.168090820312
"183","190801-13-09-37.979",15,"1.4.2",2,1,2,"AR_ARI",183,83,"AR","RESPONSE","CORRECT",0.818359375,0.619999945163727,0.018359363079071,816.406372070312
"184","190801-13-09-40.506",15,"1.4.2",2,1,2,"AR_ARI",184,84,"ARI","NO_RESPONSE","CORRECT",1.004638671875,0.63999992609024,1000,819.999938964844
"185","190801-13-09-42.922",15,"1.4.2",2,1,2,"AR_ARI",185,85,"AR","RESPONSE","CORRECT",0.89208984375,0.63999992609024,0.092089831829071,79.1016845703125
"186","190801-13-09-45.215",15,"1.4.2",2,1,2,"AR_ARI",186,86,"AR","RESPONSE","CORRECT",0.77392578125,0.63999992609024,-0.026074230670929,739.257690429688
"187","190801-13-09-47.606",15,"1.4.2",2,1,2,"AR_ARI",187,87,"AR","RESPONSE","CORRECT",0.866943359375,0.63999992609024,0.066943347454071,330.566528320312
"188","190801-13-09-49.938",15,"1.4.2",2,1,2,"AR_ARI",188,88,"AR","RESPONSE","CORRECT",0.808349609375,0.63999992609024,0.00834959745407104,916.504028320312
"189","190801-13-09-52.273",15,"1.4.2",2,1,2,"AR_ARI",189,89,"AR","RESPONSE","CORRECT",0.81298828125,0.63999992609024,0.012988269329071,870.117309570312
"190","190801-13-09-54.567",15,"1.4.2",2,1,2,"AR_ARI",190,90,"AR","RESPONSE","CORRECT",0.769775390625,0.63999992609024,-0.030224621295929,697.753784179688
"191","190801-13-09-56.923",15,"1.4.2",2,1,2,"AR_ARI",191,91,"AR","RESPONSE","CORRECT",0.833251953125,0.63999992609024,0.033251941204071,667.480590820312
"192","190801-13-09-59.304",15,"1.4.2",2,1,2,"AR_ARI",192,92,"ARI","RESPONSE","INCORRECT",0.857177734375,0.619999945163727,-1000,-560.000061035156
"193","190801-13-10-01.656",15,"1.4.2",2,1,2,"AR_ARI",193,93,"AR","RESPONSE","CORRECT",0.828125,0.619999945163727,0.028124988079071,718.750122070312
"194","190801-13-10-03.974",15,"1.4.2",2,1,2,"AR_ARI",194,94,"AR","RESPONSE","CORRECT",0.802978515625,0.619999945163727,0.00297850370407104,970.214965820312
"195","190801-13-10-06.495",15,"1.4.2",2,1,2,"AR_ARI",195,95,"ARI","NO_RESPONSE","CORRECT",1.00439453125,0.63999992609024,1000,819.999938964844
"196","190801-13-10-08.818",15,"1.4.2",2,1,2,"AR_ARI",196,96,"AR","RESPONSE","CORRECT",0.798828125,0.63999992609024,-0.00117188692092896,988.281127929688
"197","190801-13-10-11.144",15,"1.4.2",2,1,2,"AR_ARI",197,97,"ARI","RESPONSE","INCORRECT",0.8037109375,0.619999945163727,-1000,-560.000061035156
"198","190801-13-10-13.595",15,"1.4.2",2,1,2,"AR_ARI",198,98,"AR","RESPONSE","CORRECT",0.92626953125,0.619999945163727,0.126269519329071,0
"199","190801-13-10-15.936",15,"1.4.2",2,1,2,"AR_ARI",199,99,"ARI","RESPONSE","INCORRECT",0.81787109375,0.599999964237213,-1000,-580.000061035156
"200","190801-13-10-18.466",15,"1.4.2",2,1,2,"AR_ARI",200,100,"ARI","NO_RESPONSE","CORRECT",1.00439453125,0.619999945163727,1000,799.999938964844
"201","190801-13-10-20.793",15,"1.4.2",2,1,2,"AR_ARI",201,101,"AR","RESPONSE","CORRECT",0.803466796875,0.619999945163727,0.00346678495407104,965.332153320312
"202","190801-13-10-23.135",15,"1.4.2",2,1,2,"AR_ARI",202,102,"AR","RESPONSE","CORRECT",0.8232421875,0.619999945163727,0.023242175579071,767.578247070312
"203","190801-13-10-25.462",15,"1.4.2",2,1,2,"AR_ARI",203,103,"ARI","RESPONSE","INCORRECT",0.8037109375,0.599999964237213,-1000,-580.000061035156
"204","190801-13-10-27.839",15,"1.4.2",2,1,2,"AR_ARI",204,104,"AR","RESPONSE","CORRECT",0.853271484375,0.599999964237213,0.053271472454071,467.285278320312
"205","190801-13-10-30.235",15,"1.4.2",2,1,2,"AR_ARI",205,105,"AR","RESPONSE","CORRECT",0.872314453125,0.599999964237213,0.072314441204071,276.855590820312
"206","190801-13-10-32.591",15,"1.4.2",2,1,2,"AR_ARI",206,106,"ARI","RESPONSE","INCORRECT",0.8330078125,0.579999983310699,-1000,-600
"207","190801-13-10-34.968",15,"1.4.2",2,1,2,"AR_ARI",207,107,"AR","RESPONSE","CORRECT",0.853515625,0.579999983310699,0.053515613079071,464.843872070312
"208","190801-13-10-37.496",15,"1.4.2",2,1,2,"AR_ARI",208,108,"ARI","NO_RESPONSE","CORRECT",1.004638671875,0.599999964237213,1000,780
"209","190801-13-10-40.019",15,"1.4.2",2,1,2,"AR_ARI",209,109,"ARI","NO_RESPONSE","CORRECT",1.0048828125,0.619999945163727,1000,799.999938964844
"210","190801-13-10-42.352",15,"1.4.2",2,1,2,"AR_ARI",210,110,"ARI","RESPONSE","INCORRECT",0.8134765625,0.599999964237213,-1000,-580.000061035156
"211","190801-13-10-44.808",15,"1.4.2",2,1,2,"AR_ARI",211,111,"AR","RESPONSE","CORRECT",0.94091796875,0.599999964237213,0.140917956829071,0
"212","190801-13-10-47.160",15,"1.4.2",2,1,2,"AR_ARI",212,112,"AR","RESPONSE","CORRECT",0.828125,0.599999964237213,0.028124988079071,718.750122070312
"213","190801-13-10-49.570",15,"1.4.2",2,1,2,"AR_ARI",213,113,"AR","RESPONSE","CORRECT",0.88720703125,0.599999964237213,0.087207019329071,127.929809570312
"214","190801-13-10-51.936",15,"1.4.2",2,1,2,"AR_ARI",214,114,"AR","RESPONSE","CORRECT",0.8427734375,0.599999964237213,0.042773425579071,572.265747070312
"215","190801-13-10-54.488",15,"1.4.2",2,1,2,"AR_ARI",215,115,"ARI","NO_RESPONSE","CORRECT",1.00439453125,0.619999945163727,1000,799.999938964844
"216","190801-13-10-56.869",15,"1.4.2",2,1,2,"AR_ARI",216,116,"AR","RESPONSE","CORRECT",0.857421875,0.619999945163727,0.057421863079071,425.781372070312
"217","190801-13-10-59.242",15,"1.4.2",2,1,2,"AR_ARI",217,117,"AR","RESPONSE","CORRECT",0.8525390625,0.619999945163727,0.052539050579071,474.609497070312
"218","190801-13-11-01.650",15,"1.4.2",2,1,2,"AR_ARI",218,118,"AR","RESPONSE","CORRECT",0.887451171875,0.619999945163727,0.087451159954071,125.488403320312
"219","190801-13-11-04.017",15,"1.4.2",2,1,2,"AR_ARI",219,119,"AR","RESPONSE","CORRECT",0.84326171875,0.619999945163727,0.043261706829071,567.382934570312
"220","190801-13-11-06.369",15,"1.4.2",2,1,2,"AR_ARI",220,120,"AR","RESPONSE","CORRECT",0.8330078125,0.619999945163727,0.033007800579071,669.921997070312
"221","190801-13-11-08.707",15,"1.4.2",2,1,2,"AR_ARI",221,121,"AR","RESPONSE","CORRECT",0.818603515625,0.619999945163727,0.018603503704071,813.964965820312
"222","190801-13-11-11.151",15,"1.4.2",2,1,2,"AR_ARI",222,122,"AR","RESPONSE","CORRECT",0.925537109375,0.619999945163727,0.125537097454071,0
"223","190801-13-11-13.410",15,"1.4.2",2,1,2,"AR_ARI",223,123,"AR","RESPONSE","CORRECT",0.7353515625,0.619999945163727,-0.064648449420929,353.515502929688
"224","190801-13-11-15.777",15,"1.4.2",2,1,2,"AR_ARI",224,124,"AR","RESPONSE","CORRECT",0.84326171875,0.619999945163727,0.043261706829071,567.382934570312
"225","190801-13-11-18.300",15,"1.4.2",2,1,2,"AR_ARI",225,125,"ARI","NO_RESPONSE","CORRECT",1.004638671875,0.63999992609024,1000,819.999938964844
"226","190801-13-11-20.623",15,"1.4.2",2,1,2,"AR_ARI",226,126,"ARI","RESPONSE","INCORRECT",0.802490234375,0.619999945163727,-1000,-560.000061035156
"227","190801-13-11-23.058",15,"1.4.2",2,1,2,"AR_ARI",227,127,"AR","RESPONSE","CORRECT",0.91162109375,0.619999945163727,0.111621081829071,0
"228","190801-13-11-25.537",15,"1.4.2",2,1,2,"AR_ARI",228,128,"AR","RESPONSE","CORRECT",0.95556640625,0.619999945163727,0.155566394329071,0
"229","190801-13-11-27.790",15,"1.4.2",2,1,2,"AR_ARI",229,129,"ARI","RESPONSE","INCORRECT",0.73486328125,0.599999964237213,-1000,-580.000061035156
"230","190801-13-11-30.104",15,"1.4.2",2,1,2,"AR_ARI",230,130,"AR","RESPONSE","CORRECT",0.793701171875,0.599999964237213,-0.00629884004592896,937.011596679688
"231","190801-13-11-32.494",15,"1.4.2",2,1,2,"AR_ARI",231,131,"AR","RESPONSE","CORRECT",0.8671875,0.599999964237213,0.067187488079071,328.125122070312
"232","190801-13-11-34.822",15,"1.4.2",2,1,2,"AR_ARI",232,132,"AR","RESPONSE","CORRECT",0.808837890625,0.599999964237213,0.00883787870407104,911.621215820312
"233","190801-13-11-37.346",15,"1.4.2",2,1,2,"AR_ARI",233,133,"ARI","NO_RESPONSE","CORRECT",1.004638671875,0.619999945163727,1000,799.999938964844
"234","190801-13-11-39.787",15,"1.4.2",2,1,2,"AR_ARI",234,134,"AR","RESPONSE","CORRECT",0.921142578125,0.619999945163727,0.121142566204071,0
"235","190801-13-11-42.114",15,"1.4.2",2,1,2,"AR_ARI",235,135,"AR","RESPONSE","CORRECT",0.803466796875,0.619999945163727,0.00346678495407104,965.332153320312
"236","190801-13-11-44.495",15,"1.4.2",2,1,2,"AR_ARI",236,136,"AR","RESPONSE","CORRECT",0.857421875,0.619999945163727,0.057421863079071,425.781372070312
"237","190801-13-11-46.798",15,"1.4.2",2,1,2,"AR_ARI",237,137,"ARI","RESPONSE","INCORRECT",0.779052734375,0.599999964237213,-1000,-580.000061035156
"238","190801-13-11-49.105",15,"1.4.2",2,1,2,"AR_ARI",238,138,"AR","RESPONSE","CORRECT",0.784423828125,0.599999964237213,-0.015576183795929,844.238159179688
"239","190801-13-11-51.629",15,"1.4.2",2,1,2,"AR_ARI",239,139,"ARI","NO_RESPONSE","CORRECT",1.004638671875,0.619999945163727,1000,799.999938964844
"240","190801-13-11-54.031",15,"1.4.2",2,1,2,"AR_ARI",240,140,"AR","RESPONSE","CORRECT",0.877197265625,0.619999945163727,0.077197253704071,228.027465820312
"241","190801-13-11-56.558",15,"1.4.2",2,1,2,"AR_ARI",241,141,"ARI","NO_RESPONSE","CORRECT",1.004638671875,0.63999992609024,1000,819.999938964844
"242","190801-13-11-58.872",15,"1.4.2",2,1,2,"AR_ARI",242,142,"AR","RESPONSE","CORRECT",0.788818359375,0.63999992609024,-0.011181652545929,888.183471679688
"243","190801-13-12-01.263",15,"1.4.2",2,1,2,"AR_ARI",243,143,"AR","RESPONSE","CORRECT",0.8720703125,0.63999992609024,0.072070300579071,279.296997070312
"244","190801-13-12-03.629",15,"1.4.2",2,1,2,"AR_ARI",244,144,"AR","RESPONSE","CORRECT",0.84326171875,0.63999992609024,0.043261706829071,567.382934570312
"245","190801-13-12-06.054",15,"1.4.2",2,1,2,"AR_ARI",245,145,"AR","RESPONSE","CORRECT",0.901611328125,0.63999992609024,0.101611316204071,0
"246","190801-13-12-08.455",15,"1.4.2",2,1,2,"AR_ARI",246,146,"AR","RESPONSE","CORRECT",0.877685546875,0.63999992609024,0.077685534954071,223.144653320312
"247","190801-13-12-10.798",15,"1.4.2",2,1,2,"AR_ARI",247,147,"AR","RESPONSE","CORRECT",0.817626953125,0.63999992609024,0.017626941204071,823.730590820312
"248","190801-13-12-13.326",15,"1.4.2",2,1,2,"AR_ARI",248,148,"ARI","NO_RESPONSE","CORRECT",1.004638671875,0.659999907016754,1000,839.999938964844
"249","190801-13-12-15.664",15,"1.4.2",2,1,2,"AR_ARI",249,149,"AR","RESPONSE","CORRECT",0.81396484375,0.659999907016754,0.013964831829071,860.351684570312
"250","190801-13-12-17.951",15,"1.4.2",2,1,2,"AR_ARI",250,150,"ARI","RESPONSE","INCORRECT",0.764404296875,0.63999992609024,-1000,-540.000122070312
"251","190801-13-12-20.378",15,"1.4.2",2,1,2,"AR_ARI",251,151,"AR","RESPONSE","CORRECT",0.906494140625,0.63999992609024,0.106494128704071,0
"252","190801-13-12-22.904",15,"1.4.2",2,1,2,"AR_ARI",252,152,"ARI","NO_RESPONSE","CORRECT",1.004150390625,0.659999907016754,1000,839.999938964844
"253","190801-13-12-25.383",15,"1.4.2",2,1,2,"AR_ARI",253,153,"AR","RESPONSE","CORRECT",0.95556640625,0.659999907016754,0.155566394329071,0
"254","190801-13-12-27.726",15,"1.4.2",2,1,2,"AR_ARI",254,154,"AR","RESPONSE","CORRECT",0.818115234375,0.659999907016754,0.018115222454071,818.847778320312
"255","190801-13-12-30.127",15,"1.4.2",2,1,2,"AR_ARI",255,155,"AR","RESPONSE","CORRECT",0.877197265625,0.659999907016754,0.077197253704071,228.027465820312
"256","190801-13-12-32.517",15,"1.4.2",2,1,2,"AR_ARI",256,156,"ARI","RESPONSE","INCORRECT",0.8671875,0.63999992609024,-1000,-540.000122070312
"257","190801-13-12-34.909",15,"1.4.2",2,1,2,"AR_ARI",257,157,"AR","RESPONSE","CORRECT",0.8671875,0.63999992609024,0.067187488079071,328.125122070312
"258","190801-13-12-37.246",15,"1.4.2",2,1,2,"AR_ARI",258,158,"ARI","RESPONSE","INCORRECT",0.818115234375,0.619999945163727,-1000,-560.000061035156
"259","190801-13-12-39.613",15,"1.4.2",2,1,2,"AR_ARI",259,159,"AR","RESPONSE","CORRECT",0.84765625,0.619999945163727,0.047656238079071,523.437622070312
"260","190801-13-12-42.000",15,"1.4.2",2,1,2,"AR_ARI",260,160,"AR","RESPONSE","CORRECT",0.863037109375,0.619999945163727,0.063037097454071,369.629028320312
"261","190801-13-12-44.425",15,"1.4.2",2,1,2,"AR_ARI",261,161,"AR","RESPONSE","CORRECT",0.90087890625,0.619999945163727,0.100878894329071,0
"262","190801-13-12-46.776",15,"1.4.2",2,1,2,"AR_ARI",262,162,"AR","RESPONSE","CORRECT",0.828369140625,0.619999945163727,0.028369128704071,716.308715820312
"263","190801-13-12-49.129",15,"1.4.2",2,1,2,"AR_ARI",263,163,"AR","RESPONSE","CORRECT",0.82861328125,0.619999945163727,0.028613269329071,713.867309570312
"264","190801-13-12-51.613",15,"1.4.2",2,1,2,"AR_ARI",264,164,"AR","RESPONSE","CORRECT",0.959716796875,0.619999945163727,0.159716784954071,0
"265","190801-13-12-54.126",15,"1.4.2",2,1,2,"AR_ARI",265,165,"AR","RESPONSE","CORRECT",0.98974609375,0.619999945163727,0.189746081829071,0
"266","190801-13-12-56.342",15,"1.4.2",2,1,2,"AR_ARI",266,166,"ARI","RESPONSE","INCORRECT",0.695068359375,0.599999964237213,-1000,-580.000061035156
"267","190801-13-12-58.869",15,"1.4.2",2,1,2,"AR_ARI",267,167,"ARI","NO_RESPONSE","CORRECT",1.004638671875,0.619999945163727,1000,799.999938964844
"268","190801-13-13-01.397",15,"1.4.2",2,1,2,"AR_ARI",268,168,"ARI","NO_RESPONSE","CORRECT",1.00439453125,0.63999992609024,1000,819.999938964844
"269","190801-13-13-03.736",15,"1.4.2",2,1,2,"AR_ARI",269,169,"AR","RESPONSE","CORRECT",0.8134765625,0.63999992609024,0.013476550579071,865.234497070312
"270","190801-13-13-06.098",15,"1.4.2",2,1,2,"AR_ARI",270,170,"AR","RESPONSE","CORRECT",0.838134765625,0.63999992609024,0.038134753704071,618.652465820312
"271","190801-13-13-08.415",15,"1.4.2",2,1,2,"AR_ARI",271,171,"AR","RESPONSE","CORRECT",0.7939453125,0.63999992609024,-0.00605469942092896,939.453002929688
"272","190801-13-13-10.733",15,"1.4.2",2,1,2,"AR_ARI",272,172,"AR","RESPONSE","CORRECT",0.798583984375,0.63999992609024,-0.00141602754592896,985.839721679688
"273","190801-13-13-13.084",15,"1.4.2",2,1,2,"AR_ARI",273,173,"AR","RESPONSE","CORRECT",0.828125,0.63999992609024,0.028124988079071,718.750122070312
"274","190801-13-13-15.397",15,"1.4.2",2,1,2,"AR_ARI",274,174,"AR","RESPONSE","CORRECT",0.788330078125,0.63999992609024,-0.011669933795929,883.300659179688
"275","190801-13-13-17.749",15,"1.4.2",2,1,2,"AR_ARI",275,175,"AR","RESPONSE","CORRECT",0.82861328125,0.63999992609024,0.028613269329071,713.867309570312
"276","190801-13-13-20.126",15,"1.4.2",2,1,2,"AR_ARI",276,176,"AR","RESPONSE","CORRECT",0.857421875,0.63999992609024,0.057421863079071,425.781372070312
"277","190801-13-13-22.480",15,"1.4.2",2,1,2,"AR_ARI",277,177,"AR","RESPONSE","CORRECT",0.8330078125,0.63999992609024,0.033007800579071,669.921997070312
"278","190801-13-13-24.856",15,"1.4.2",2,1,2,"AR_ARI",278,178,"AR","RESPONSE","CORRECT",0.8525390625,0.63999992609024,0.052539050579071,474.609497070312
"279","190801-13-13-27.253",15,"1.4.2",2,1,2,"AR_ARI",279,179,"AR","RESPONSE","CORRECT",0.8720703125,0.63999992609024,0.072070300579071,279.296997070312
"280","190801-13-13-29.780",15,"1.4.2",2,1,2,"AR_ARI",280,180,"ARI","NO_RESPONSE","CORRECT",1.004638671875,0.659999907016754,1000,839.999938964844
"281","190801-13-13-32.191",15,"1.4.2",2,1,2,"AR_ARI",281,181,"ARI","RESPONSE","INCORRECT",0.886962890625,0.63999992609024,-1000,-540.000122070312
"282","190801-13-13-34.574",15,"1.4.2",2,1,2,"AR_ARI",282,182,"AR","RESPONSE","CORRECT",0.862548828125,0.63999992609024,0.062548816204071,374.511840820312
"283","190801-13-13-36.989",15,"1.4.2",2,1,2,"AR_ARI",283,183,"AR","RESPONSE","CORRECT",0.891845703125,0.63999992609024,0.091845691204071,81.5430908203125
"284","190801-13-13-39.385",15,"1.4.2",2,1,2,"AR_ARI",284,184,"AR","RESPONSE","CORRECT",0.871826171875,0.63999992609024,0.071826159954071,281.738403320312
"285","190801-13-13-46.711",15,"1.4.2",2,1,3,"AR_ARI",285,1,"ARI","RESPONSE","INCORRECT",0.779052734375,0.619999945163727,-1000,-560.000061035156
"286","190801-13-13-49.239",15,"1.4.2",2,1,3,"AR_ARI",286,2,"ARI","NO_RESPONSE","CORRECT",1.00439453125,0.63999992609024,1000,819.999938964844
"287","190801-13-13-51.606",15,"1.4.2",2,1,3,"AR_ARI",287,3,"AR","RESPONSE","CORRECT",0.843017578125,0.63999992609024,0.043017566204071,569.824340820312
"288","190801-13-13-53.997",15,"1.4.2",2,1,3,"AR_ARI",288,4,"AR","RESPONSE","CORRECT",0.867431640625,0.63999992609024,0.067431628704071,325.683715820312
"289","190801-13-13-56.329",15,"1.4.2",2,1,3,"AR_ARI",289,5,"ARI","RESPONSE","INCORRECT",0.808349609375,0.619999945163727,-1000,-560.000061035156
"290","190801-13-13-58.857",15,"1.4.2",2,1,3,"AR_ARI",290,6,"ARI","NO_RESPONSE","CORRECT",1.004638671875,0.63999992609024,1000,819.999938964844
"291","190801-13-14-01.342",15,"1.4.2",2,1,3,"AR_ARI",291,7,"AR","RESPONSE","CORRECT",0.960205078125,0.63999992609024,0.160205066204071,0
"292","190801-13-14-03.694",15,"1.4.2",2,1,3,"AR_ARI",292,8,"AR","RESPONSE","CORRECT",0.828857421875,0.63999992609024,0.028857409954071,711.425903320312
"293","190801-13-14-06.060",15,"1.4.2",2,1,3,"AR_ARI",293,9,"AR","RESPONSE","CORRECT",0.8427734375,0.63999992609024,0.042773425579071,572.265747070312
"294","190801-13-14-08.398",15,"1.4.2",2,1,3,"AR_ARI",294,10,"AR","RESPONSE","CORRECT",0.8134765625,0.63999992609024,0.013476550579071,865.234497070312
"295","190801-13-14-10.784",15,"1.4.2",2,1,3,"AR_ARI",295,11,"AR","RESPONSE","CORRECT",0.862060546875,0.63999992609024,0.062060534954071,379.394653320312
"296","190801-13-14-13.038",15,"1.4.2",2,1,3,"AR_ARI",296,12,"AR","RESPONSE","CORRECT",0.729736328125,0.63999992609024,-0.070263683795929,297.363159179688
"297","190801-13-14-15.400",15,"1.4.2",2,1,3,"AR_ARI",297,13,"AR","RESPONSE","CORRECT",0.8427734375,0.63999992609024,0.042773425579071,572.265747070312
"298","190801-13-14-17.781",15,"1.4.2",2,1,3,"AR_ARI",298,14,"AR","RESPONSE","CORRECT",0.857666015625,0.63999992609024,0.057666003704071,423.339965820312
"299","190801-13-14-20.104",15,"1.4.2",2,1,3,"AR_ARI",299,15,"AR","RESPONSE","CORRECT",0.8037109375,0.63999992609024,0.00371092557907104,962.890747070312
"300","190801-13-14-22.505",15,"1.4.2",2,1,3,"AR_ARI",300,16,"ARI","RESPONSE","INCORRECT",0.882568359375,0.619999945163727,-1000,-560.000061035156
"301","190801-13-14-24.896",15,"1.4.2",2,1,3,"AR_ARI",301,17,"AR","RESPONSE","CORRECT",0.8671875,0.619999945163727,0.067187488079071,328.125122070312
"302","190801-13-14-27.247",15,"1.4.2",2,1,3,"AR_ARI",302,18,"AR","RESPONSE","CORRECT",0.82861328125,0.619999945163727,0.028613269329071,713.867309570312
"303","190801-13-14-29.614",15,"1.4.2",2,1,3,"AR_ARI",303,19,"AR","RESPONSE","CORRECT",0.843017578125,0.619999945163727,0.043017566204071,569.824340820312
"304","190801-13-14-31.951",15,"1.4.2",2,1,3,"AR_ARI",304,20,"ARI","RESPONSE","INCORRECT",0.8134765625,0.599999964237213,-1000,-580.000061035156
"305","190801-13-14-34.333",15,"1.4.2",2,1,3,"AR_ARI",305,21,"AR","RESPONSE","CORRECT",0.857421875,0.599999964237213,0.057421863079071,425.781372070312
"306","190801-13-14-36.856",15,"1.4.2",2,1,3,"AR_ARI",306,22,"ARI","NO_RESPONSE","CORRECT",1.004638671875,0.619999945163727,1000,799.999938964844
"307","190801-13-14-39.247",15,"1.4.2",2,1,3,"AR_ARI",307,23,"AR","RESPONSE","CORRECT",0.8671875,0.619999945163727,0.067187488079071,328.125122070312
"308","190801-13-14-41.605",15,"1.4.2",2,1,3,"AR_ARI",308,24,"AR","RESPONSE","CORRECT",0.84326171875,0.619999945163727,0.043261706829071,567.382934570312
"309","190801-13-14-44.001",15,"1.4.2",2,1,3,"AR_ARI",309,25,"AR","RESPONSE","CORRECT",0.8720703125,0.619999945163727,0.072070300579071,279.296997070312
"310","190801-13-14-46.372",15,"1.4.2",2,1,3,"AR_ARI",310,26,"AR","RESPONSE","CORRECT",0.84765625,0.619999945163727,0.047656238079071,523.437622070312
"311","190801-13-14-48.709",15,"1.4.2",2,1,3,"AR_ARI",311,27,"ARI","RESPONSE","INCORRECT",0.8134765625,0.599999964237213,-1000,-580.000061035156
"312","190801-13-14-51.224",15,"1.4.2",2,1,3,"AR_ARI",312,28,"AR","RESPONSE","CORRECT",0.98974609375,0.599999964237213,0.189746081829071,0
"313","190801-13-14-53.477",15,"1.4.2",2,1,3,"AR_ARI",313,29,"AR","RESPONSE","CORRECT",0.72998046875,0.599999964237213,-0.070019543170929,299.804565429688
"314","190801-13-14-55.844",15,"1.4.2",2,1,3,"AR_ARI",314,30,"AR","RESPONSE","CORRECT",0.84326171875,0.599999964237213,0.043261706829071,567.382934570312
"315","190801-13-14-58.244",15,"1.4.2",2,1,3,"AR_ARI",315,31,"AR","RESPONSE","CORRECT",0.87744140625,0.599999964237213,0.077441394329071,225.586059570312
"316","190801-13-15-00.773",15,"1.4.2",2,1,3,"AR_ARI",316,32,"ARI","NO_RESPONSE","CORRECT",1.00439453125,0.619999945163727,1000,799.999938964844
"317","190801-13-15-03.175",15,"1.4.2",2,1,3,"AR_ARI",317,33,"AR","RESPONSE","CORRECT",0.882080078125,0.619999945163727,0.082080066204071,179.199340820312
"318","190801-13-15-05.526",15,"1.4.2",2,1,3,"AR_ARI",318,34,"AR","RESPONSE","CORRECT",0.828125,0.619999945163727,0.028124988079071,718.750122070312
"319","190801-13-15-07.888",15,"1.4.2",2,1,3,"AR_ARI",319,35,"AR","RESPONSE","CORRECT",0.83837890625,0.619999945163727,0.038378894329071,616.211059570312
"320","190801-13-15-10.220",15,"1.4.2",2,1,3,"AR_ARI",320,36,"ARI","RESPONSE","INCORRECT",0.80859375,0.599999964237213,-1000,-580.000061035156
"321","190801-13-15-12.573",15,"1.4.2",2,1,3,"AR_ARI",321,37,"AR","RESPONSE","CORRECT",0.828125,0.599999964237213,0.028124988079071,718.750122070312
"322","190801-13-15-15.100",15,"1.4.2",2,1,3,"AR_ARI",322,38,"ARI","NO_RESPONSE","CORRECT",1.0048828125,0.619999945163727,1000,799.999938964844
"323","190801-13-15-17.428",15,"1.4.2",2,1,3,"AR_ARI",323,39,"AR","RESPONSE","CORRECT",0.8037109375,0.619999945163727,0.00371092557907104,962.890747070312
"324","190801-13-15-19.957",15,"1.4.2",2,1,3,"AR_ARI",324,40,"ARI","NO_RESPONSE","CORRECT",1.004638671875,0.63999992609024,1000,819.999938964844
"325","190801-13-15-22.485",15,"1.4.2",2,1,3,"AR_ARI",325,41,"ARI","NO_RESPONSE","CORRECT",1.0048828125,0.659999907016754,1000,839.999938964844
"326","190801-13-15-24.872",15,"1.4.2",2,1,3,"AR_ARI",326,42,"AR","RESPONSE","CORRECT",0.8623046875,0.659999907016754,0.062304675579071,376.953247070312
"327","190801-13-15-27.288",15,"1.4.2",2,1,3,"AR_ARI",327,43,"AR","RESPONSE","CORRECT",0.896728515625,0.659999907016754,0.096728503704071,32.7149620056152
"328","190801-13-15-29.654",15,"1.4.2",2,1,3,"AR_ARI",328,44,"AR","RESPONSE","CORRECT",0.8525390625,0.659999907016754,0.052539050579071,474.609497070312
"329","190801-13-15-32.055",15,"1.4.2",2,1,3,"AR_ARI",329,45,"AR","RESPONSE","CORRECT",0.8818359375,0.659999907016754,0.081835925579071,181.640747070312
"330","190801-13-15-34.368",15,"1.4.2",2,1,3,"AR_ARI",330,46,"AR","RESPONSE","CORRECT",0.7890625,0.659999907016754,-0.010937511920929,890.624877929688
"331","190801-13-15-36.773",15,"1.4.2",2,1,3,"AR_ARI",331,47,"AR","RESPONSE","CORRECT",0.88720703125,0.659999907016754,0.087207019329071,127.929809570312
"332","190801-13-15-39.141",15,"1.4.2",2,1,3,"AR_ARI",332,48,"AR","RESPONSE","CORRECT",0.85205078125,0.659999907016754,0.052050769329071,479.492309570312
"333","190801-13-15-41.488",15,"1.4.2",2,1,3,"AR_ARI",333,49,"AR","RESPONSE","CORRECT",0.823974609375,0.659999907016754,0.023974597454071,760.254028320312
"334","190801-13-15-43.820",15,"1.4.2",2,1,3,"AR_ARI",334,50,"AR","RESPONSE","CORRECT",0.80859375,0.659999907016754,0.00859373807907104,914.062622070312
"335","190801-13-15-46.191",15,"1.4.2",2,1,3,"AR_ARI",335,51,"AR","RESPONSE","CORRECT",0.847900390625,0.659999907016754,0.047900378704071,520.996215820312
"336","190801-13-15-48.509",15,"1.4.2",2,1,3,"AR_ARI",336,52,"AR","RESPONSE","CORRECT",0.7939453125,0.659999907016754,-0.00605469942092896,939.453002929688
"337","190801-13-15-50.896",15,"1.4.2",2,1,3,"AR_ARI",337,53,"AR","RESPONSE","CORRECT",0.8623046875,0.659999907016754,0.062304675579071,376.953247070312
"338","190801-13-15-53.311",15,"1.4.2",2,1,3,"AR_ARI",338,54,"AR","RESPONSE","CORRECT",0.892333984375,0.659999907016754,0.092333972454071,76.6602783203125
"339","190801-13-15-55.599",15,"1.4.2",2,1,3,"AR_ARI",339,55,"AR","RESPONSE","CORRECT",0.764404296875,0.659999907016754,-0.035595715045929,644.042846679688
"340","190801-13-15-57.912",15,"1.4.2",2,1,3,"AR_ARI",340,56,"AR","RESPONSE","CORRECT",0.7890625,0.659999907016754,-0.010937511920929,890.624877929688
"341","190801-13-16-00.284",15,"1.4.2",2,1,3,"AR_ARI",341,57,"AR","RESPONSE","CORRECT",0.847900390625,0.659999907016754,0.047900378704071,520.996215820312
"342","190801-13-16-02.631",15,"1.4.2",2,1,3,"AR_ARI",342,58,"ARI","RESPONSE","INCORRECT",0.822998046875,0.63999992609024,-1000,-540.000122070312
"343","190801-13-16-04.997",15,"1.4.2",2,1,3,"AR_ARI",343,59,"ARI","RESPONSE","INCORRECT",0.8427734375,0.619999945163727,-1000,-560.000061035156
"344","190801-13-16-07.423",15,"1.4.2",2,1,3,"AR_ARI",344,60,"AR","RESPONSE","CORRECT",0.90576171875,0.619999945163727,0.105761706829071,0
"345","190801-13-16-09.951",15,"1.4.2",2,1,3,"AR_ARI",345,61,"ARI","NO_RESPONSE","CORRECT",1.004638671875,0.63999992609024,1000,819.999938964844
"346","190801-13-16-12.396",15,"1.4.2",2,1,3,"AR_ARI",346,62,"AR","RESPONSE","CORRECT",0.922119140625,0.63999992609024,0.122119128704071,0
"347","190801-13-16-14.749",15,"1.4.2",2,1,3,"AR_ARI",347,63,"ARI","RESPONSE","INCORRECT",0.828125,0.619999945163727,-1000,-560.000061035156
"348","190801-13-16-17.159",15,"1.4.2",2,1,3,"AR_ARI",348,64,"AR","RESPONSE","CORRECT",0.887451171875,0.619999945163727,0.087451159954071,125.488403320312
"349","190801-13-16-19.526",15,"1.4.2",2,1,3,"AR_ARI",349,65,"AR","RESPONSE","CORRECT",0.84765625,0.619999945163727,0.047656238079071,523.437622070312
"350","190801-13-16-21.957",15,"1.4.2",2,1,3,"AR_ARI",350,66,"AR","RESPONSE","CORRECT",0.911376953125,0.619999945163727,0.111376941204071,0
"351","190801-13-16-24.358",15,"1.4.2",2,1,3,"AR_ARI",351,67,"AR","RESPONSE","CORRECT",0.876953125,0.619999945163727,0.076953113079071,230.468872070312
"352","190801-13-16-26.715",15,"1.4.2",2,1,3,"AR_ARI",352,68,"AR","RESPONSE","CORRECT",0.833251953125,0.619999945163727,0.033251941204071,667.480590820312
"353","190801-13-16-29.238",15,"1.4.2",2,1,3,"AR_ARI",353,69,"ARI","NO_RESPONSE","CORRECT",1.00439453125,0.63999992609024,1000,819.999938964844
"354","190801-13-16-31.581",15,"1.4.2",2,1,3,"AR_ARI",354,70,"AR","RESPONSE","CORRECT",0.818115234375,0.63999992609024,0.018115222454071,818.847778320312
"355","190801-13-16-33.903",15,"1.4.2",2,1,3,"AR_ARI",355,71,"ARI","RESPONSE","INCORRECT",0.80810546875,0.619999945163727,-1000,-560.000061035156
"356","190801-13-16-36.432",15,"1.4.2",2,1,3,"AR_ARI",356,72,"ARI","NO_RESPONSE","CORRECT",1.004638671875,0.63999992609024,1000,819.999938964844
"357","190801-13-16-38.789",15,"1.4.2",2,1,3,"AR_ARI",357,73,"AR","RESPONSE","CORRECT",0.837890625,0.63999992609024,0.037890613079071,621.093872070312
"358","190801-13-16-41.312",15,"1.4.2",2,1,3,"AR_ARI",358,74,"ARI","NO_RESPONSE","CORRECT",1.00048828125,0.659999907016754,1000,839.999938964844
"359","190801-13-16-43.703",15,"1.4.2",2,1,3,"AR_ARI",359,75,"AR","RESPONSE","CORRECT",0.8671875,0.659999907016754,0.067187488079071,328.125122070312
"360","190801-13-16-46.134",15,"1.4.2",2,1,3,"AR_ARI",360,76,"AR","RESPONSE","CORRECT",0.910888671875,0.659999907016754,0.110888659954071,0
"361","190801-13-16-48.495",15,"1.4.2",2,1,3,"AR_ARI",361,77,"ARI","RESPONSE","INCORRECT",0.84326171875,0.63999992609024,-1000,-540.000122070312
"362","190801-13-16-50.966",15,"1.4.2",2,1,3,"AR_ARI",362,78,"AR","RESPONSE","CORRECT",0.945556640625,0.63999992609024,0.145556628704071,0
"363","190801-13-16-53.278",15,"1.4.2",2,1,3,"AR_ARI",363,79,"AR","RESPONSE","CORRECT",0.7939453125,0.63999992609024,-0.00605469942092896,939.453002929688
"364","190801-13-16-55.679",15,"1.4.2",2,1,3,"AR_ARI",364,80,"AR","RESPONSE","CORRECT",0.886962890625,0.63999992609024,0.086962878704071,130.371215820312
"365","190801-13-16-57.997",15,"1.4.2",2,1,3,"AR_ARI",365,81,"AR","RESPONSE","CORRECT",0.798828125,0.63999992609024,-0.00117188692092896,988.281127929688
"366","190801-13-17-00.334",15,"1.4.2",2,1,3,"AR_ARI",366,82,"AR","RESPONSE","CORRECT",0.818359375,0.63999992609024,0.018359363079071,816.406372070312
"367","190801-13-17-02.711",15,"1.4.2",2,1,3,"AR_ARI",367,83,"AR","RESPONSE","CORRECT",0.8525390625,0.63999992609024,0.052539050579071,474.609497070312
"368","190801-13-17-05.038",15,"1.4.2",2,1,3,"AR_ARI",368,84,"AR","RESPONSE","CORRECT",0.804443359375,0.63999992609024,0.00444334745407104,955.566528320312
"369","190801-13-17-07.381",15,"1.4.2",2,1,3,"AR_ARI",369,85,"ARI","RESPONSE","INCORRECT",0.828125,0.619999945163727,-1000,-560.000061035156
"370","190801-13-17-09.885",15,"1.4.2",2,1,3,"AR_ARI",370,86,"AR","RESPONSE","CORRECT",0.98046875,0.619999945163727,0.180468738079071,0
"371","190801-13-17-12.207",15,"1.4.2",2,1,3,"AR_ARI",371,87,"AR","RESPONSE","CORRECT",0.79833984375,0.619999945163727,-0.00166016817092896,983.398315429688
"372","190801-13-17-14.735",15,"1.4.2",2,1,3,"AR_ARI",372,88,"ARI","NO_RESPONSE","CORRECT",1.004638671875,0.63999992609024,1000,819.999938964844
"373","190801-13-17-17.092",15,"1.4.2",2,1,3,"AR_ARI",373,89,"AR","RESPONSE","CORRECT",0.8330078125,0.63999992609024,0.033007800579071,669.921997070312
"374","190801-13-17-19.454",15,"1.4.2",2,1,3,"AR_ARI",374,90,"AR","RESPONSE","CORRECT",0.837890625,0.63999992609024,0.037890613079071,621.093872070312
"375","190801-13-17-21.767",15,"1.4.2",2,1,3,"AR_ARI",375,91,"AR","RESPONSE","CORRECT",0.7890625,0.63999992609024,-0.010937511920929,890.624877929688
"376","190801-13-17-24.142",15,"1.4.2",2,1,3,"AR_ARI",376,92,"AR","RESPONSE","CORRECT",0.8525390625,0.63999992609024,0.052539050579071,474.609497070312
"377","190801-13-17-26.470",15,"1.4.2",2,1,3,"AR_ARI",377,93,"AR","RESPONSE","CORRECT",0.804443359375,0.63999992609024,0.00444334745407104,955.566528320312
"378","190801-13-17-28.807",15,"1.4.2",2,1,3,"AR_ARI",378,94,"ARI","RESPONSE","INCORRECT",0.813720703125,0.619999945163727,-1000,-560.000061035156
"379","190801-13-17-31.139",15,"1.4.2",2,1,3,"AR_ARI",379,95,"AR","RESPONSE","CORRECT",0.80859375,0.619999945163727,0.00859373807907104,914.062622070312
"380","190801-13-17-33.491",15,"1.4.2",2,1,3,"AR_ARI",380,96,"AR","RESPONSE","CORRECT",0.833251953125,0.619999945163727,0.033251941204071,667.480590820312
"381","190801-13-17-35.868",15,"1.4.2",2,1,3,"AR_ARI",381,97,"AR","RESPONSE","CORRECT",0.857666015625,0.619999945163727,0.057666003704071,423.339965820312
"382","190801-13-17-38.205",15,"1.4.2",2,1,3,"AR_ARI",382,98,"AR","RESPONSE","CORRECT",0.818359375,0.619999945163727,0.018359363079071,816.406372070312
"383","190801-13-17-40.546",15,"1.4.2",2,1,3,"AR_ARI",383,99,"AR","RESPONSE","CORRECT",0.82373046875,0.619999945163727,0.023730456829071,762.695434570312
"384","190801-13-17-42.899",15,"1.4.2",2,1,3,"AR_ARI",384,100,"AR","RESPONSE","CORRECT",0.828125,0.619999945163727,0.028124988079071,718.750122070312
"385","190801-13-17-45.252",15,"1.4.2",2,1,3,"AR_ARI",385,101,"AR","RESPONSE","CORRECT",0.83203125,0.619999945163727,0.032031238079071,679.687622070312
"386","190801-13-17-47.554",15,"1.4.2",2,1,3,"AR_ARI",386,102,"ARI","RESPONSE","INCORRECT",0.779296875,0.599999964237213,-1000,-580.000061035156
"387","190801-13-17-49.941",15,"1.4.2",2,1,3,"AR_ARI",387,103,"AR","RESPONSE","CORRECT",0.867431640625,0.599999964237213,0.067431628704071,325.683715820312
"388","190801-13-17-52.322",15,"1.4.2",2,1,3,"AR_ARI",388,104,"AR","RESPONSE","CORRECT",0.8623046875,0.599999964237213,0.062304675579071,376.953247070312
"389","190801-13-17-54.850",15,"1.4.2",2,1,3,"AR_ARI",389,105,"ARI","NO_RESPONSE","CORRECT",1.00390625,0.619999945163727,1000,799.999938964844
"390","190801-13-17-57.203",15,"1.4.2",2,1,3,"AR_ARI",390,106,"AR","RESPONSE","CORRECT",0.8330078125,0.619999945163727,0.033007800579071,669.921997070312
"391","190801-13-17-59.526",15,"1.4.2",2,1,3,"AR_ARI",391,107,"AR","RESPONSE","CORRECT",0.80419921875,0.619999945163727,0.00419920682907104,958.007934570312
"392","190801-13-18-01.879",15,"1.4.2",2,1,3,"AR_ARI",392,108,"AR","RESPONSE","CORRECT",0.8330078125,0.619999945163727,0.033007800579071,669.921997070312
"393","190801-13-18-04.197",15,"1.4.2",2,1,3,"AR_ARI",393,109,"AR","RESPONSE","CORRECT",0.793701171875,0.619999945163727,-0.00629884004592896,937.011596679688
"394","190801-13-18-06.588",15,"1.4.2",2,1,3,"AR_ARI",394,110,"ARI","RESPONSE","INCORRECT",0.8671875,0.599999964237213,-1000,-580.000061035156
"395","190801-13-18-09.013",15,"1.4.2",2,1,3,"AR_ARI",395,111,"AR","RESPONSE","CORRECT",0.9013671875,0.599999964237213,0.101367175579071,0
"396","190801-13-18-11.541",15,"1.4.2",2,1,3,"AR_ARI",396,112,"ARI","NO_RESPONSE","CORRECT",1.00439453125,0.619999945163727,1000,799.999938964844
"397","190801-13-18-13.859",15,"1.4.2",2,1,3,"AR_ARI",397,113,"ARI","RESPONSE","INCORRECT",0.798828125,0.599999964237213,-1000,-580.000061035156
"398","190801-13-18-16.227",15,"1.4.2",2,1,3,"AR_ARI",398,114,"AR","RESPONSE","CORRECT",0.8427734375,0.599999964237213,0.042773425579071,572.265747070312
"399","190801-13-18-18.755",15,"1.4.2",2,1,3,"AR_ARI",399,115,"ARI","NO_RESPONSE","CORRECT",1.0048828125,0.619999945163727,1000,799.999938964844
"400","190801-13-18-21.283",15,"1.4.2",2,1,3,"AR_ARI",400,116,"ARI","NO_RESPONSE","CORRECT",1.00439453125,0.63999992609024,1000,819.999938964844
"401","190801-13-18-23.655",15,"1.4.2",2,1,3,"AR_ARI",401,117,"AR","RESPONSE","CORRECT",0.84765625,0.63999992609024,0.047656238079071,523.437622070312
"402","190801-13-18-26.086",15,"1.4.2",2,1,3,"AR_ARI",402,118,"AR","RESPONSE","CORRECT",0.9072265625,0.63999992609024,0.107226550579071,0
"403","190801-13-18-28.476",15,"1.4.2",2,1,3,"AR_ARI",403,119,"AR","RESPONSE","CORRECT",0.867431640625,0.63999992609024,0.067431628704071,325.683715820312
"404","190801-13-18-30.843",15,"1.4.2",2,1,3,"AR_ARI",404,120,"AR","RESPONSE","CORRECT",0.8427734375,0.63999992609024,0.042773425579071,572.265747070312
"405","190801-13-18-33.190",15,"1.4.2",2,1,3,"AR_ARI",405,121,"AR","RESPONSE","CORRECT",0.828125,0.63999992609024,0.028124988079071,718.750122070312
"406","190801-13-18-35.571",15,"1.4.2",2,1,3,"AR_ARI",406,122,"AR","RESPONSE","CORRECT",0.857666015625,0.63999992609024,0.057666003704071,423.339965820312
"407","190801-13-18-37.918",15,"1.4.2",2,1,3,"AR_ARI",407,123,"ARI","RESPONSE","INCORRECT",0.822998046875,0.619999945163727,-1000,-560.000061035156
"408","190801-13-18-40.446",15,"1.4.2",2,1,3,"AR_ARI",408,124,"ARI","NO_RESPONSE","CORRECT",1.005126953125,0.63999992609024,1000,819.999938964844
"409","190801-13-18-42.843",15,"1.4.2",2,1,3,"AR_ARI",409,125,"ARI","RESPONSE","INCORRECT",0.876708984375,0.619999945163727,-1000,-560.000061035156
"410","190801-13-18-45.244",15,"1.4.2",2,1,3,"AR_ARI",410,126,"AR","RESPONSE","CORRECT",0.877197265625,0.619999945163727,0.077197253704071,228.027465820312
"411","190801-13-18-47.610",15,"1.4.2",2,1,3,"AR_ARI",411,127,"AR","RESPONSE","CORRECT",0.8427734375,0.619999945163727,0.042773425579071,572.265747070312
"412","190801-13-18-50.021",15,"1.4.2",2,1,3,"AR_ARI",412,128,"AR","RESPONSE","CORRECT",0.891845703125,0.619999945163727,0.091845691204071,81.5430908203125
"413","190801-13-18-52.378",15,"1.4.2",2,1,3,"AR_ARI",413,129,"AR","RESPONSE","CORRECT",0.8330078125,0.619999945163727,0.033007800579071,669.921997070312
"414","190801-13-18-54.716",15,"1.4.2",2,1,3,"AR_ARI",414,130,"AR","RESPONSE","CORRECT",0.819091796875,0.619999945163727,0.019091784954071,809.082153320312
"415","190801-13-18-57.063",15,"1.4.2",2,1,3,"AR_ARI",415,131,"AR","RESPONSE","CORRECT",0.8232421875,0.619999945163727,0.023242175579071,767.578247070312
"416","190801-13-18-59.484",15,"1.4.2",2,1,3,"AR_ARI",416,132,"AR","RESPONSE","CORRECT",0.896728515625,0.619999945163727,0.096728503704071,32.7149620056152
"417","190801-13-19-01.836",15,"1.4.2",2,1,3,"AR_ARI",417,133,"AR","RESPONSE","CORRECT",0.83251953125,0.619999945163727,0.032519519329071,674.804809570312
"418","190801-13-19-04.157",15,"1.4.2",2,1,3,"AR_ARI",418,134,"AR","RESPONSE","CORRECT",0.799072265625,0.619999945163727,-0.000927746295928955,990.722534179688
"419","190801-13-19-06.598",15,"1.4.2",2,1,3,"AR_ARI",419,135,"AR","RESPONSE","CORRECT",0.9169921875,0.619999945163727,0.116992175579071,0
"420","190801-13-19-08.891",15,"1.4.2",2,1,3,"AR_ARI",420,136,"AR","RESPONSE","CORRECT",0.773681640625,0.619999945163727,-0.026318371295929,736.816284179688
"421","190801-13-19-11.238",15,"1.4.2",2,1,3,"AR_ARI",421,137,"AR","RESPONSE","CORRECT",0.828125,0.619999945163727,0.028124988079071,718.750122070312
"422","190801-13-19-13.526",15,"1.4.2",2,1,3,"AR_ARI",422,138,"AR","RESPONSE","CORRECT",0.768798828125,0.619999945163727,-0.031201183795929,687.988159179688
"423","190801-13-19-15.868",15,"1.4.2",2,1,3,"AR_ARI",423,139,"AR","RESPONSE","CORRECT",0.818359375,0.619999945163727,0.018359363079071,816.406372070312
"424","190801-13-19-18.196",15,"1.4.2",2,1,3,"AR_ARI",424,140,"AR","RESPONSE","CORRECT",0.803955078125,0.619999945163727,0.00395506620407104,960.449340820312
"425","190801-13-19-20.548",15,"1.4.2",2,1,3,"AR_ARI",425,141,"AR","RESPONSE","CORRECT",0.828369140625,0.619999945163727,0.028369128704071,716.308715820312
"426","190801-13-19-22.894",15,"1.4.2",2,1,3,"AR_ARI",426,142,"ARI","RESPONSE","INCORRECT",0.828125,0.599999964237213,-1000,-580.000061035156
"427","190801-13-19-25.418",15,"1.4.2",2,1,3,"AR_ARI",427,143,"ARI","NO_RESPONSE","CORRECT",1.00390625,0.619999945163727,1000,799.999938964844
"428","190801-13-19-27.843",15,"1.4.2",2,1,3,"AR_ARI",428,144,"AR","RESPONSE","CORRECT",0.901611328125,0.619999945163727,0.101611316204071,0
"429","190801-13-19-30.170",15,"1.4.2",2,1,3,"AR_ARI",429,145,"ARI","RESPONSE","INCORRECT",0.803466796875,0.599999964237213,-1000,-580.000061035156
"430","190801-13-19-32.698",15,"1.4.2",2,1,3,"AR_ARI",430,146,"AR","NO_RESPONSE","INCORRECT",1.004150390625,0.599999964237213,-1000,-250
"431","190801-13-19-35.006",15,"1.4.2",2,1,3,"AR_ARI",431,147,"ARI","RESPONSE","INCORRECT",0.7841796875,0.579999983310699,-1000,-600
"432","190801-13-19-37.501",15,"1.4.2",2,1,3,"AR_ARI",432,148,"AR","RESPONSE","CORRECT",0.975341796875,0.579999983310699,0.175341784954071,0
"433","190801-13-19-39.819",15,"1.4.2",2,1,3,"AR_ARI",433,149,"AR","RESPONSE","CORRECT",0.799560546875,0.579999983310699,-0.000439465045928955,995.605346679688
"434","190801-13-19-42.346",15,"1.4.2",2,1,3,"AR_ARI",434,150,"ARI","NO_RESPONSE","CORRECT",1.00439453125,0.599999964237213,1000,780
"435","190801-13-19-44.762",15,"1.4.2",2,1,3,"AR_ARI",435,151,"AR","RESPONSE","CORRECT",0.896728515625,0.599999964237213,0.096728503704071,32.7149620056152
"436","190801-13-19-47.085",15,"1.4.2",2,1,3,"AR_ARI",436,152,"AR","RESPONSE","CORRECT",0.798583984375,0.599999964237213,-0.00141602754592896,985.839721679688
"437","190801-13-19-49.462",15,"1.4.2",2,1,3,"AR_ARI",437,153,"AR","RESPONSE","CORRECT",0.8525390625,0.599999964237213,0.052539050579071,474.609497070312
"438","190801-13-19-51.725",15,"1.4.2",2,1,3,"AR_ARI",438,154,"AR","RESPONSE","CORRECT",0.744873046875,0.599999964237213,-0.055126965045929,448.730346679688
"439","190801-13-19-54.077",15,"1.4.2",2,1,3,"AR_ARI",439,155,"AR","RESPONSE","CORRECT",0.828125,0.599999964237213,0.028124988079071,718.750122070312
"440","190801-13-19-56.600",15,"1.4.2",2,1,3,"AR_ARI",440,156,"ARI","NO_RESPONSE","CORRECT",1.004638671875,0.619999945163727,1000,799.999938964844
"441","190801-13-19-58.982",15,"1.4.2",2,1,3,"AR_ARI",441,157,"AR","RESPONSE","CORRECT",0.857421875,0.619999945163727,0.057421863079071,425.781372070312
"442","190801-13-20-01.339",15,"1.4.2",2,1,3,"AR_ARI",442,158,"AR","RESPONSE","CORRECT",0.8330078125,0.619999945163727,0.033007800579071,669.921997070312
"443","190801-13-20-03.730",15,"1.4.2",2,1,3,"AR_ARI",443,159,"AR","RESPONSE","CORRECT",0.8671875,0.619999945163727,0.067187488079071,328.125122070312
"444","190801-13-20-06.258",15,"1.4.2",2,1,3,"AR_ARI",444,160,"ARI","NO_RESPONSE","CORRECT",1.004638671875,0.63999992609024,1000,819.999938964844
"445","190801-13-20-08.649",15,"1.4.2",2,1,3,"AR_ARI",445,161,"AR","RESPONSE","CORRECT",0.867431640625,0.63999992609024,0.067431628704071,325.683715820312
"446","190801-13-20-10.947",15,"1.4.2",2,1,3,"AR_ARI",446,162,"AR","RESPONSE","CORRECT",0.7841796875,0.63999992609024,-0.015820324420929,841.796752929688
"447","190801-13-20-13.314",15,"1.4.2",2,1,3,"AR_ARI",447,163,"AR","RESPONSE","CORRECT",0.8427734375,0.63999992609024,0.042773425579071,572.265747070312
"448","190801-13-20-15.691",15,"1.4.2",2,1,3,"AR_ARI",448,164,"AR","RESPONSE","CORRECT",0.8525390625,0.63999992609024,0.052539050579071,474.609497070312
"449","190801-13-20-18.018",15,"1.4.2",2,1,3,"AR_ARI",449,165,"ARI","RESPONSE","INCORRECT",0.8037109375,0.619999945163727,-1000,-560.000061035156
"450","190801-13-20-20.385",15,"1.4.2",2,1,3,"AR_ARI",450,166,"AR","RESPONSE","CORRECT",0.84765625,0.619999945163727,0.047656238079071,523.437622070312
"451","190801-13-20-22.754",15,"1.4.2",2,1,3,"AR_ARI",451,167,"AR","RESPONSE","CORRECT",0.84765625,0.619999945163727,0.047656238079071,523.437622070312
"452","190801-13-20-25.139",15,"1.4.2",2,1,3,"AR_ARI",452,168,"AR","RESPONSE","CORRECT",0.8623046875,0.619999945163727,0.062304675579071,376.953247070312
"453","190801-13-20-27.515",15,"1.4.2",2,1,3,"AR_ARI",453,169,"AR","RESPONSE","CORRECT",0.857666015625,0.619999945163727,0.057666003704071,423.339965820312
"454","190801-13-20-29.868",15,"1.4.2",2,1,3,"AR_ARI",454,170,"AR","RESPONSE","CORRECT",0.828125,0.619999945163727,0.028124988079071,718.750122070312
"455","190801-13-20-32.180",15,"1.4.2",2,1,3,"AR_ARI",455,171,"AR","RESPONSE","CORRECT",0.7890625,0.619999945163727,-0.010937511920929,890.624877929688
"456","190801-13-20-34.553",15,"1.4.2",2,1,3,"AR_ARI",456,172,"ARI","RESPONSE","INCORRECT",0.853271484375,0.599999964237213,-1000,-580.000061035156
"457","190801-13-20-37.011",15,"1.4.2",2,1,3,"AR_ARI",457,173,"AR","RESPONSE","CORRECT",0.930908203125,0.599999964237213,0.130908191204071,0
"458","190801-13-20-39.307",15,"1.4.2",2,1,3,"AR_ARI",458,174,"AR","RESPONSE","CORRECT",0.7744140625,0.599999964237213,-0.025585949420929,744.140502929688
"459","190801-13-20-41.698",15,"1.4.2",2,1,3,"AR_ARI",459,175,"AR","RESPONSE","CORRECT",0.8671875,0.599999964237213,0.067187488079071,328.125122070312
"460","190801-13-20-44.036",15,"1.4.2",2,1,3,"AR_ARI",460,176,"AR","RESPONSE","CORRECT",0.813720703125,0.599999964237213,0.013720691204071,862.793090820312
"461","190801-13-20-46.378",15,"1.4.2",2,1,3,"AR_ARI",461,177,"AR","RESPONSE","CORRECT",0.818115234375,0.599999964237213,0.018115222454071,818.847778320312
"462","190801-13-20-48.749",15,"1.4.2",2,1,3,"AR_ARI",462,178,"AR","RESPONSE","CORRECT",0.84765625,0.599999964237213,0.047656238079071,523.437622070312
"463","190801-13-20-51.140",15,"1.4.2",2,1,3,"AR_ARI",463,179,"AR","RESPONSE","CORRECT",0.867431640625,0.599999964237213,0.067431628704071,325.683715820312
"464","190801-13-20-53.483",15,"1.4.2",2,1,3,"AR_ARI",464,180,"ARI","RESPONSE","INCORRECT",0.818115234375,0.579999983310699,-1000,-600
"465","190801-13-20-56.011",15,"1.4.2",2,1,3,"AR_ARI",465,181,"ARI","NO_RESPONSE","CORRECT",1.004638671875,0.599999964237213,1000,780
"466","190801-13-20-58.403",15,"1.4.2",2,1,3,"AR_ARI",466,182,"AR","RESPONSE","CORRECT",0.86669921875,0.599999964237213,0.066699206829071,333.007934570312
"467","190801-13-21-00.740",15,"1.4.2",2,1,3,"AR_ARI",467,183,"AR","RESPONSE","CORRECT",0.8134765625,0.599999964237213,0.013476550579071,865.234497070312
"468","190801-13-21-03.067",15,"1.4.2",2,1,3,"AR_ARI",468,184,"AR","RESPONSE","CORRECT",0.80322265625,0.599999964237213,0.00322264432907104,967.773559570312
"469","190801-13-21-10.373",15,"1.4.2",2,1,4,"AR_ARI",469,1,"AR","RESPONSE","CORRECT",0.759521484375,0.599999964237213,-0.040478527545929,595.214721679688
"470","190801-13-21-12.690",15,"1.4.2",2,1,4,"AR_ARI",470,2,"AR","RESPONSE","CORRECT",0.798828125,0.599999964237213,-0.00117188692092896,988.281127929688
"471","190801-13-21-15.003",15,"1.4.2",2,1,4,"AR_ARI",471,3,"AR","RESPONSE","CORRECT",0.7890625,0.599999964237213,-0.010937511920929,890.624877929688
"472","190801-13-21-17.341",15,"1.4.2",2,1,4,"AR_ARI",472,4,"AR","RESPONSE","CORRECT",0.8134765625,0.599999964237213,0.013476550579071,865.234497070312
"473","190801-13-21-19.683",15,"1.4.2",2,1,4,"AR_ARI",473,5,"AR","RESPONSE","CORRECT",0.818359375,0.599999964237213,0.018359363079071,816.406372070312
"474","190801-13-21-22.045",15,"1.4.2",2,1,4,"AR_ARI",474,6,"AR","RESPONSE","CORRECT",0.837890625,0.599999964237213,0.037890613079071,621.093872070312
"475","190801-13-21-24.573",15,"1.4.2",2,1,4,"AR_ARI",475,7,"ARI","NO_RESPONSE","CORRECT",1.00439453125,0.619999945163727,1000,799.999938964844
"476","190801-13-21-26.925",15,"1.4.2",2,1,4,"AR_ARI",476,8,"AR","RESPONSE","CORRECT",0.82861328125,0.619999945163727,0.028613269329071,713.867309570312
"477","190801-13-21-29.227",15,"1.4.2",2,1,4,"AR_ARI",477,9,"ARI","RESPONSE","INCORRECT",0.779052734375,0.599999964237213,-1000,-580.000061035156
"478","190801-13-21-31.590",15,"1.4.2",2,1,4,"AR_ARI",478,10,"AR","RESPONSE","CORRECT",0.837890625,0.599999964237213,0.037890613079071,621.093872070312
"479","190801-13-21-33.898",15,"1.4.2",2,1,4,"AR_ARI",479,11,"AR","RESPONSE","CORRECT",0.783935546875,0.599999964237213,-0.016064465045929,839.355346679688
"480","190801-13-21-36.323",15,"1.4.2",2,1,4,"AR_ARI",480,12,"AR","RESPONSE","CORRECT",0.901611328125,0.599999964237213,0.101611316204071,0
"481","190801-13-21-38.714",15,"1.4.2",2,1,4,"AR_ARI",481,13,"AR","RESPONSE","CORRECT",0.8671875,0.599999964237213,0.067187488079071,328.125122070312
"482","190801-13-21-41.086",15,"1.4.2",2,1,4,"AR_ARI",482,14,"AR","RESPONSE","CORRECT",0.852783203125,0.599999964237213,0.052783191204071,472.168090820312
"483","190801-13-21-43.428",15,"1.4.2",2,1,4,"AR_ARI",483,15,"AR","RESPONSE","CORRECT",0.818359375,0.599999964237213,0.018359363079071,816.406372070312
"484","190801-13-21-45.785",15,"1.4.2",2,1,4,"AR_ARI",484,16,"AR","RESPONSE","CORRECT",0.8330078125,0.599999964237213,0.033007800579071,669.921997070312
"485","190801-13-21-48.147",15,"1.4.2",2,1,4,"AR_ARI",485,17,"AR","RESPONSE","CORRECT",0.837646484375,0.599999964237213,0.037646472454071,623.535278320312
"486","190801-13-21-50.562",15,"1.4.2",2,1,4,"AR_ARI",486,18,"AR","RESPONSE","CORRECT",0.891845703125,0.599999964237213,0.091845691204071,81.5430908203125
"487","190801-13-21-53.086",15,"1.4.2",2,1,4,"AR_ARI",487,19,"ARI","NO_RESPONSE","CORRECT",1.004150390625,0.619999945163727,1000,799.999938964844
"488","190801-13-21-55.408",15,"1.4.2",2,1,4,"AR_ARI",488,20,"ARI","RESPONSE","INCORRECT",0.79833984375,0.599999964237213,-1000,-580.000061035156
"489","190801-13-21-57.936",15,"1.4.2",2,1,4,"AR_ARI",489,21,"ARI","NO_RESPONSE","CORRECT",1.005126953125,0.619999945163727,1000,799.999938964844
"490","190801-13-22-00.362",15,"1.4.2",2,1,4,"AR_ARI",490,22,"AR","RESPONSE","CORRECT",0.902099609375,0.619999945163727,0.102099597454071,0
"491","190801-13-22-02.700",15,"1.4.2",2,1,4,"AR_ARI",491,23,"AR","RESPONSE","CORRECT",0.813720703125,0.619999945163727,0.013720691204071,862.793090820312
"492","190801-13-22-04.988",15,"1.4.2",2,1,4,"AR_ARI",492,24,"AR","RESPONSE","CORRECT",0.768798828125,0.619999945163727,-0.031201183795929,687.988159179688
"493","190801-13-22-07.301",15,"1.4.2",2,1,4,"AR_ARI",493,25,"AR","RESPONSE","CORRECT",0.789794921875,0.619999945163727,-0.010205090045929,897.949096679688
"494","190801-13-22-09.678",15,"1.4.2",2,1,4,"AR_ARI",494,26,"AR","RESPONSE","CORRECT",0.8525390625,0.619999945163727,0.052539050579071,474.609497070312
"495","190801-13-22-12.093",15,"1.4.2",2,1,4,"AR_ARI",495,27,"AR","RESPONSE","CORRECT",0.892333984375,0.619999945163727,0.092333972454071,76.6602783203125
"496","190801-13-22-14.420",15,"1.4.2",2,1,4,"AR_ARI",496,28,"AR","RESPONSE","CORRECT",0.80859375,0.619999945163727,0.00859373807907104,914.062622070312
"497","190801-13-22-16.817",15,"1.4.2",2,1,4,"AR_ARI",497,29,"AR","RESPONSE","CORRECT",0.876953125,0.619999945163727,0.076953113079071,230.468872070312
"498","190801-13-22-19.175",15,"1.4.2",2,1,4,"AR_ARI",498,30,"AR","RESPONSE","CORRECT",0.833251953125,0.619999945163727,0.033251941204071,667.480590820312
"499","190801-13-22-21.500",15,"1.4.2",2,1,4,"AR_ARI",499,31,"ARI","RESPONSE","INCORRECT",0.8037109375,0.599999964237213,-1000,-580.000061035156
"500","190801-13-22-23.883",15,"1.4.2",2,1,4,"AR_ARI",500,32,"AR","RESPONSE","CORRECT",0.858154296875,0.599999964237213,0.058154284954071,418.457153320312
"501","190801-13-22-26.281",15,"1.4.2",2,1,4,"AR_ARI",501,33,"AR","RESPONSE","CORRECT",0.876220703125,0.599999964237213,0.076220691204071,237.793090820312
"502","190801-13-22-28.609",15,"1.4.2",2,1,4,"AR_ARI",502,34,"AR","RESPONSE","CORRECT",0.80859375,0.599999964237213,0.00859373807907104,914.062622070312
"503","190801-13-22-30.947",15,"1.4.2",2,1,4,"AR_ARI",503,35,"AR","RESPONSE","CORRECT",0.8134765625,0.599999964237213,0.013476550579071,865.234497070312
"504","190801-13-22-33.290",15,"1.4.2",2,1,4,"AR_ARI",504,36,"AR","RESPONSE","CORRECT",0.8232421875,0.599999964237213,0.023242175579071,767.578247070312
"505","190801-13-22-35.652",15,"1.4.2",2,1,4,"AR_ARI",505,37,"AR","RESPONSE","CORRECT",0.8427734375,0.599999964237213,0.042773425579071,572.265747070312
"506","190801-13-22-38.005",15,"1.4.2",2,1,4,"AR_ARI",506,38,"AR","RESPONSE","CORRECT",0.828857421875,0.599999964237213,0.028857409954071,711.425903320312
"507","190801-13-22-40.331",15,"1.4.2",2,1,4,"AR_ARI",507,39,"AR","RESPONSE","CORRECT",0.803466796875,0.599999964237213,0.00346678495407104,965.332153320312
"508","190801-13-22-42.854",15,"1.4.2",2,1,4,"AR_ARI",508,40,"ARI","NO_RESPONSE","CORRECT",1.004638671875,0.619999945163727,1000,799.999938964844
"509","190801-13-22-45.211",15,"1.4.2",2,1,4,"AR_ARI",509,41,"ARI","RESPONSE","INCORRECT",0.8330078125,0.599999964237213,-1000,-580.000061035156
"510","190801-13-22-47.740",15,"1.4.2",2,1,4,"AR_ARI",510,42,"ARI","NO_RESPONSE","CORRECT",1.004638671875,0.619999945163727,1000,799.999938964844
"511","190801-13-22-50.117",15,"1.4.2",2,1,4,"AR_ARI",511,43,"AR","RESPONSE","CORRECT",0.852294921875,0.619999945163727,0.052294909954071,477.050903320312
"512","190801-13-22-52.493",15,"1.4.2",2,1,4,"AR_ARI",512,44,"AR","RESPONSE","CORRECT",0.8525390625,0.619999945163727,0.052539050579071,474.609497070312
"513","190801-13-22-54.836",15,"1.4.2",2,1,4,"AR_ARI",513,45,"AR","RESPONSE","CORRECT",0.828369140625,0.619999945163727,0.028369128704071,716.308715820312
"514","190801-13-22-57.237",15,"1.4.2",2,1,4,"AR_ARI",514,46,"AR","RESPONSE","CORRECT",0.876953125,0.619999945163727,0.076953113079071,230.468872070312
"515","190801-13-22-59.765",15,"1.4.2",2,1,4,"AR_ARI",515,47,"ARI","NO_RESPONSE","CORRECT",1.00439453125,0.63999992609024,1000,819.999938964844
"516","190801-13-23-02.293",15,"1.4.2",2,1,4,"AR_ARI",516,48,"AR","NO_RESPONSE","INCORRECT",1.005126953125,0.63999992609024,-1000,-250
"517","190801-13-23-04.626",15,"1.4.2",2,1,4,"AR_ARI",517,49,"AR","RESPONSE","CORRECT",0.808349609375,0.63999992609024,0.00834959745407104,916.504028320312
"518","190801-13-23-06.900",15,"1.4.2",2,1,4,"AR_ARI",518,50,"AR","RESPONSE","CORRECT",0.754638671875,0.63999992609024,-0.045361340045929,546.386596679688
"519","190801-13-23-09.227",15,"1.4.2",2,1,4,"AR_ARI",519,51,"ARI","RESPONSE","INCORRECT",0.813232421875,0.619999945163727,-1000,-560.000061035156
"520","190801-13-23-11.618",15,"1.4.2",2,1,4,"AR_ARI",520,52,"AR","RESPONSE","CORRECT",0.867919921875,0.619999945163727,0.067919909954071,320.800903320312
"521","190801-13-23-13.969",15,"1.4.2",2,1,4,"AR_ARI",521,53,"AR","RESPONSE","CORRECT",0.828125,0.619999945163727,0.028124988079071,718.750122070312
"522","190801-13-23-16.497",15,"1.4.2",2,1,4,"AR_ARI",522,54,"ARI","NO_RESPONSE","CORRECT",1.00439453125,0.63999992609024,1000,819.999938964844
"523","190801-13-23-18.809",15,"1.4.2",2,1,4,"AR_ARI",523,55,"AR","RESPONSE","CORRECT",0.7890625,0.63999992609024,-0.010937511920929,890.624877929688
"524","190801-13-23-21.162",15,"1.4.2",2,1,4,"AR_ARI",524,56,"AR","RESPONSE","CORRECT",0.828125,0.63999992609024,0.028124988079071,718.750122070312
"525","190801-13-23-23.508",15,"1.4.2",2,1,4,"AR_ARI",525,57,"ARI","RESPONSE","INCORRECT",0.822265625,0.619999945163727,-1000,-560.000061035156
"526","190801-13-23-25.875",15,"1.4.2",2,1,4,"AR_ARI",526,58,"AR","RESPONSE","CORRECT",0.84765625,0.619999945163727,0.047656238079071,523.437622070312
"527","190801-13-23-28.398",15,"1.4.2",2,1,4,"AR_ARI",527,59,"ARI","NO_RESPONSE","CORRECT",1.00439453125,0.63999992609024,1000,819.999938964844
"528","190801-13-23-30.926",15,"1.4.2",2,1,4,"AR_ARI",528,60,"ARI","NO_RESPONSE","CORRECT",1.0048828125,0.659999907016754,1000,839.999938964844
"529","190801-13-23-33.269",15,"1.4.2",2,1,4,"AR_ARI",529,61,"AR","RESPONSE","CORRECT",0.8232421875,0.659999907016754,0.023242175579071,767.578247070312
"530","190801-13-23-35.577",15,"1.4.2",2,1,4,"AR_ARI",530,62,"AR","RESPONSE","CORRECT",0.78515625,0.659999907016754,-0.014843761920929,851.562377929688
"531","190801-13-23-37.978",15,"1.4.2",2,1,4,"AR_ARI",531,63,"AR","RESPONSE","CORRECT",0.8818359375,0.659999907016754,0.081835925579071,181.640747070312
"532","190801-13-23-40.340",15,"1.4.2",2,1,4,"AR_ARI",532,64,"ARI","RESPONSE","INCORRECT",0.83837890625,0.63999992609024,-1000,-540.000122070312
"533","190801-13-23-42.757",15,"1.4.2",2,1,4,"AR_ARI",533,65,"AR","RESPONSE","CORRECT",0.8916015625,0.63999992609024,0.091601550579071,83.9844970703125
"534","190801-13-23-45.137",15,"1.4.2",2,1,4,"AR_ARI",534,66,"AR","RESPONSE","CORRECT",0.8623046875,0.63999992609024,0.062304675579071,376.953247070312
"535","190801-13-23-47.578",15,"1.4.2",2,1,4,"AR_ARI",535,67,"AR","RESPONSE","CORRECT",0.91650390625,0.63999992609024,0.116503894329071,0
"536","190801-13-23-50.082",15,"1.4.2",2,1,4,"AR_ARI",536,68,"AR","RESPONSE","CORRECT",0.98486328125,0.63999992609024,0.184863269329071,0
"537","190801-13-23-52.532",15,"1.4.2",2,1,4,"AR_ARI",537,69,"AR","RESPONSE","CORRECT",0.92578125,0.63999992609024,0.125781238079071,0
"538","190801-13-23-55.059",15,"1.4.2",2,1,4,"AR_ARI",538,70,"ARI","NO_RESPONSE","CORRECT",1.00439453125,0.659999907016754,1000,839.999938964844
"539","190801-13-23-57.452",15,"1.4.2",2,1,4,"AR_ARI",539,71,"AR","RESPONSE","CORRECT",0.87158203125,0.659999907016754,0.071582019329071,284.179809570312
"540","190801-13-23-59.828",15,"1.4.2",2,1,4,"AR_ARI",540,72,"AR","RESPONSE","CORRECT",0.85791015625,0.659999907016754,0.057910144329071,420.898559570312
"541","190801-13-24-02.219",15,"1.4.2",2,1,4,"AR_ARI",541,73,"AR","RESPONSE","CORRECT",0.87255859375,0.659999907016754,0.072558581829071,274.414184570312
"542","190801-13-24-04.561",15,"1.4.2",2,1,4,"AR_ARI",542,74,"ARI","RESPONSE","INCORRECT",0.82275390625,0.63999992609024,-1000,-540.000122070312
"543","190801-13-24-06.938",15,"1.4.2",2,1,4,"AR_ARI",543,75,"AR","RESPONSE","CORRECT",0.8525390625,0.63999992609024,0.052539050579071,474.609497070312
"544","190801-13-24-09.465",15,"1.4.2",2,1,4,"AR_ARI",544,76,"ARI","NO_RESPONSE","CORRECT",1.0048828125,0.659999907016754,1000,839.999938964844
"545","190801-13-24-11.877",15,"1.4.2",2,1,4,"AR_ARI",545,77,"ARI","RESPONSE","INCORRECT",0.8916015625,0.63999992609024,-1000,-540.000122070312
"546","190801-13-24-14.307",15,"1.4.2",2,1,4,"AR_ARI",546,78,"AR","RESPONSE","CORRECT",0.90625,0.63999992609024,0.106249988079071,0
"547","190801-13-24-16.836",15,"1.4.2",2,1,4,"AR_ARI",547,79,"ARI","NO_RESPONSE","CORRECT",1.0048828125,0.659999907016754,1000,839.999938964844
"548","190801-13-24-19.330",15,"1.4.2",2,1,4,"AR_ARI",548,80,"AR","RESPONSE","CORRECT",0.97509765625,0.659999907016754,0.175097644329071,0
"549","190801-13-24-21.721",15,"1.4.2",2,1,4,"AR_ARI",549,81,"AR","RESPONSE","CORRECT",0.8720703125,0.659999907016754,0.072070300579071,279.296997070312
"550","190801-13-24-24.171",15,"1.4.2",2,1,4,"AR_ARI",550,82,"AR","RESPONSE","CORRECT",0.92626953125,0.659999907016754,0.126269519329071,0
"551","190801-13-24-26.577",15,"1.4.2",2,1,4,"AR_ARI",551,83,"AR","RESPONSE","CORRECT",0.88671875,0.659999907016754,0.086718738079071,132.812622070312
"552","190801-13-24-29.099",15,"1.4.2",2,1,4,"AR_ARI",552,84,"ARI","NO_RESPONSE","CORRECT",1.0048828125,0.679999887943268,1000,859.999877929688
"553","190801-13-24-31.477",15,"1.4.2",2,1,4,"AR_ARI",553,85,"AR","RESPONSE","CORRECT",0.85791015625,0.679999887943268,0.057910144329071,420.898559570312
"554","190801-13-24-33.922",15,"1.4.2",2,1,4,"AR_ARI",554,86,"AR","RESPONSE","CORRECT",0.92626953125,0.679999887943268,0.126269519329071,0
"555","190801-13-24-36.337",15,"1.4.2",2,1,4,"AR_ARI",555,87,"ARI","RESPONSE","INCORRECT",0.89697265625,0.659999907016754,-1000,-520.000122070312
"556","190801-13-24-38.777",15,"1.4.2",2,1,4,"AR_ARI",556,88,"AR","RESPONSE","CORRECT",0.9208984375,0.659999907016754,0.120898425579071,0
"557","190801-13-24-41.164",15,"1.4.2",2,1,4,"AR_ARI",557,89,"AR","RESPONSE","CORRECT",0.86767578125,0.659999907016754,0.067675769329071,323.242309570312
"558","190801-13-24-43.594",15,"1.4.2",2,1,4,"AR_ARI",558,90,"AR","RESPONSE","CORRECT",0.90625,0.659999907016754,0.106249988079071,0
"559","190801-13-24-46.059",15,"1.4.2",2,1,4,"AR_ARI",559,91,"AR","RESPONSE","CORRECT",0.9404296875,0.659999907016754,0.140429675579071,0
"560","190801-13-24-48.440",15,"1.4.2",2,1,4,"AR_ARI",560,92,"ARI","RESPONSE","INCORRECT",0.8623046875,0.63999992609024,-1000,-540.000122070312
"561","190801-13-24-50.866",15,"1.4.2",2,1,4,"AR_ARI",561,93,"AR","RESPONSE","CORRECT",0.9013671875,0.63999992609024,0.101367175579071,0
"562","190801-13-24-53.257",15,"1.4.2",2,1,4,"AR_ARI",562,94,"AR","RESPONSE","CORRECT",0.8720703125,0.63999992609024,0.072070300579071,279.296997070312
"563","190801-13-24-55.731",15,"1.4.2",2,1,4,"AR_ARI",563,95,"AR","RESPONSE","CORRECT",0.95068359375,0.63999992609024,0.150683581829071,0
"564","190801-13-24-58.089",15,"1.4.2",2,1,4,"AR_ARI",564,96,"AR","RESPONSE","CORRECT",0.83837890625,0.63999992609024,0.038378894329071,616.211059570312
"565","190801-13-25-00.612",15,"1.4.2",2,1,4,"AR_ARI",565,97,"ARI","NO_RESPONSE","CORRECT",1.00439453125,0.659999907016754,1000,839.999938964844
"566","190801-13-25-03.042",15,"1.4.2",2,1,4,"AR_ARI",566,98,"AR","RESPONSE","CORRECT",0.916015625,0.659999907016754,0.116015613079071,0
"567","190801-13-25-05.429",15,"1.4.2",2,1,4,"AR_ARI",567,99,"AR","RESPONSE","CORRECT",0.8671875,0.659999907016754,0.067187488079071,328.125122070312
"568","190801-13-25-07.820",15,"1.4.2",2,1,4,"AR_ARI",568,100,"ARI","RESPONSE","INCORRECT",0.8720703125,0.63999992609024,-1000,-540.000122070312
"569","190801-13-25-10.343",15,"1.4.2",2,1,4,"AR_ARI",569,101,"AR","NO_RESPONSE","INCORRECT",1.00439453125,0.63999992609024,-1000,-250
"570","190801-13-25-12.755",15,"1.4.2",2,1,4,"AR_ARI",570,102,"AR","RESPONSE","CORRECT",0.8916015625,0.63999992609024,0.091601550579071,83.9844970703125
"571","190801-13-25-15.082",15,"1.4.2",2,1,4,"AR_ARI",571,103,"ARI","RESPONSE","INCORRECT",0.80859375,0.619999945163727,-1000,-560.000061035156
"572","190801-13-25-17.513",15,"1.4.2",2,1,4,"AR_ARI",572,104,"AR","RESPONSE","CORRECT",0.90625,0.619999945163727,0.106249988079071,0
"573","190801-13-25-19.884",15,"1.4.2",2,1,4,"AR_ARI",573,105,"AR","RESPONSE","CORRECT",0.8486328125,0.619999945163727,0.048632800579071,513.671997070312
"574","190801-13-25-22.251",15,"1.4.2",2,1,4,"AR_ARI",574,106,"AR","RESPONSE","CORRECT",0.8427734375,0.619999945163727,0.042773425579071,572.265747070312
"575","190801-13-25-24.593",15,"1.4.2",2,1,4,"AR_ARI",575,107,"AR","RESPONSE","CORRECT",0.8232421875,0.619999945163727,0.023242175579071,767.578247070312
"576","190801-13-25-26.915",15,"1.4.2",2,1,4,"AR_ARI",576,108,"AR","RESPONSE","CORRECT",0.8037109375,0.619999945163727,0.00371092557907104,962.890747070312
"577","190801-13-25-29.439",15,"1.4.2",2,1,4,"AR_ARI",577,109,"ARI","NO_RESPONSE","CORRECT",1.00390625,0.63999992609024,1000,819.999938964844
"578","190801-13-25-31.810",15,"1.4.2",2,1,4,"AR_ARI",578,110,"AR","RESPONSE","CORRECT",0.857421875,0.63999992609024,0.057421863079071,425.781372070312
"579","190801-13-25-34.138",15,"1.4.2",2,1,4,"AR_ARI",579,111,"AR","RESPONSE","CORRECT",0.80859375,0.63999992609024,0.00859373807907104,914.062622070312
"580","190801-13-25-36.578",15,"1.4.2",2,1,4,"AR_ARI",580,112,"AR","RESPONSE","CORRECT",0.91650390625,0.63999992609024,0.116503894329071,0
"581","190801-13-25-38.984",15,"1.4.2",2,1,4,"AR_ARI",581,113,"AR","RESPONSE","CORRECT",0.88671875,0.63999992609024,0.086718738079071,132.812622070312
"582","190801-13-25-41.331",15,"1.4.2",2,1,4,"AR_ARI",582,114,"AR","RESPONSE","CORRECT",0.828125,0.63999992609024,0.028124988079071,718.750122070312
"583","190801-13-25-43.707",15,"1.4.2",2,1,4,"AR_ARI",583,115,"AR","RESPONSE","CORRECT",0.853515625,0.63999992609024,0.053515613079071,464.843872070312
"584","190801-13-25-46.044",15,"1.4.2",2,1,4,"AR_ARI",584,116,"ARI","RESPONSE","INCORRECT",0.818359375,0.619999945163727,-1000,-560.000061035156
"585","190801-13-25-48.504",15,"1.4.2",2,1,4,"AR_ARI",585,117,"AR","RESPONSE","CORRECT",0.93603515625,0.619999945163727,0.136035144329071,0
"586","190801-13-25-50.906",15,"1.4.2",2,1,4,"AR_ARI",586,118,"AR","RESPONSE","CORRECT",0.88671875,0.619999945163727,0.086718738079071,132.812622070312
"587","190801-13-25-53.283",15,"1.4.2",2,1,4,"AR_ARI",587,119,"AR","RESPONSE","CORRECT",0.85302734375,0.619999945163727,0.053027331829071,469.726684570312
"588","190801-13-25-55.624",15,"1.4.2",2,1,4,"AR_ARI",588,120,"AR","RESPONSE","CORRECT",0.82275390625,0.619999945163727,0.022753894329071,772.461059570312
"589","190801-13-25-58.016",15,"1.4.2",2,1,4,"AR_ARI",589,121,"AR","RESPONSE","CORRECT",0.8671875,0.619999945163727,0.067187488079071,328.125122070312
"590","190801-13-26-00.367",15,"1.4.2",2,1,4,"AR_ARI",590,122,"AR","RESPONSE","CORRECT",0.8330078125,0.619999945163727,0.033007800579071,669.921997070312
"591","190801-13-26-02.896",15,"1.4.2",2,1,4,"AR_ARI",591,123,"ARI","NO_RESPONSE","CORRECT",1.00439453125,0.63999992609024,1000,819.999938964844
"592","190801-13-26-05.218",15,"1.4.2",2,1,4,"AR_ARI",592,124,"ARI","RESPONSE","INCORRECT",0.8037109375,0.619999945163727,-1000,-560.000061035156
"593","190801-13-26-07.620",15,"1.4.2",2,1,4,"AR_ARI",593,125,"AR","RESPONSE","CORRECT",0.876953125,0.619999945163727,0.076953113079071,230.468872070312
"594","190801-13-26-10.012",15,"1.4.2",2,1,4,"AR_ARI",594,126,"AR","RESPONSE","CORRECT",0.8720703125,0.619999945163727,0.072070300579071,279.296997070312
"595","190801-13-26-12.451",15,"1.4.2",2,1,4,"AR_ARI",595,127,"AR","RESPONSE","CORRECT",0.91650390625,0.619999945163727,0.116503894329071,0
"596","190801-13-26-14.833",15,"1.4.2",2,1,4,"AR_ARI",596,128,"AR","RESPONSE","CORRECT",0.8623046875,0.619999945163727,0.062304675579071,376.953247070312
"597","190801-13-26-17.209",15,"1.4.2",2,1,4,"AR_ARI",597,129,"AR","RESPONSE","CORRECT",0.8525390625,0.619999945163727,0.052539050579071,474.609497070312
"598","190801-13-26-19.610",15,"1.4.2",2,1,4,"AR_ARI",598,130,"AR","RESPONSE","CORRECT",0.876953125,0.619999945163727,0.076953113079071,230.468872070312
"599","190801-13-26-21.913",15,"1.4.2",2,1,4,"AR_ARI",599,131,"ARI","RESPONSE","INCORRECT",0.7841796875,0.599999964237213,-1000,-580.000061035156
"600","190801-13-26-24.441",15,"1.4.2",2,1,4,"AR_ARI",600,132,"ARI","NO_RESPONSE","CORRECT",1.00439453125,0.619999945163727,1000,799.999938964844
"601","190801-13-26-26.720",15,"1.4.2",2,1,4,"AR_ARI",601,133,"AR","RESPONSE","CORRECT",0.7548828125,0.619999945163727,-0.045117199420929,548.828002929688
"602","190801-13-26-29.244",15,"1.4.2",2,1,4,"AR_ARI",602,134,"ARI","NO_RESPONSE","CORRECT",1.00439453125,0.63999992609024,1000,819.999938964844
"603","190801-13-26-31.625",15,"1.4.2",2,1,4,"AR_ARI",603,135,"AR","RESPONSE","CORRECT",0.857421875,0.63999992609024,0.057421863079071,425.781372070312
"604","190801-13-26-34.041",15,"1.4.2",2,1,4,"AR_ARI",604,136,"AR","RESPONSE","CORRECT",0.896484375,0.63999992609024,0.096484363079071,35.1563682556152
"605","190801-13-26-36.368",15,"1.4.2",2,1,4,"AR_ARI",605,137,"AR","RESPONSE","CORRECT",0.80859375,0.63999992609024,0.00859373807907104,914.062622070312
"606","190801-13-26-38.729",15,"1.4.2",2,1,4,"AR_ARI",606,138,"AR","RESPONSE","CORRECT",0.83837890625,0.63999992609024,0.038378894329071,616.211059570312
"607","190801-13-26-41.161",15,"1.4.2",2,1,4,"AR_ARI",607,139,"AR","RESPONSE","CORRECT",0.90625,0.63999992609024,0.106249988079071,0
"608","190801-13-26-43.493",15,"1.4.2",2,1,4,"AR_ARI",608,140,"AR","RESPONSE","CORRECT",0.80859375,0.63999992609024,0.00859373807907104,914.062622070312
"609","190801-13-26-45.835",15,"1.4.2",2,1,4,"AR_ARI",609,141,"AR","RESPONSE","CORRECT",0.8232421875,0.63999992609024,0.023242175579071,767.578247070312
"610","190801-13-26-48.129",15,"1.4.2",2,1,4,"AR_ARI",610,142,"AR","RESPONSE","CORRECT",0.77880859375,0.63999992609024,-0.021191418170929,788.085815429688
"611","190801-13-26-50.652",15,"1.4.2",2,1,4,"AR_ARI",611,143,"ARI","NO_RESPONSE","CORRECT",1.00439453125,0.659999907016754,1000,839.999938964844
"612","190801-13-26-52.994",15,"1.4.2",2,1,4,"AR_ARI",612,144,"AR","RESPONSE","CORRECT",0.8232421875,0.659999907016754,0.023242175579071,767.578247070312
"613","190801-13-26-55.321",15,"1.4.2",2,1,4,"AR_ARI",613,145,"AR","RESPONSE","CORRECT",0.8037109375,0.659999907016754,0.00371092557907104,962.890747070312
"614","190801-13-26-57.664",15,"1.4.2",2,1,4,"AR_ARI",614,146,"ARI","RESPONSE","INCORRECT",0.82373046875,0.63999992609024,-1000,-540.000122070312
"615","190801-13-27-00.138",15,"1.4.2",2,1,4,"AR_ARI",615,147,"AR","RESPONSE","CORRECT",0.95068359375,0.63999992609024,0.150683581829071,0
"616","190801-13-27-02.545",15,"1.4.2",2,1,4,"AR_ARI",616,148,"AR","RESPONSE","CORRECT",0.88671875,0.63999992609024,0.086718738079071,132.812622070312
"617","190801-13-27-04.960",15,"1.4.2",2,1,4,"AR_ARI",617,149,"AR","RESPONSE","CORRECT",0.89208984375,0.63999992609024,0.092089831829071,79.1016845703125
"618","190801-13-27-07.322",15,"1.4.2",2,1,4,"AR_ARI",618,150,"AR","RESPONSE","CORRECT",0.837890625,0.63999992609024,0.037890613079071,621.093872070312
"619","190801-13-27-09.713",15,"1.4.2",2,1,4,"AR_ARI",619,151,"AR","RESPONSE","CORRECT",0.873046875,0.63999992609024,0.073046863079071,269.531372070312
"620","190801-13-27-12.075",15,"1.4.2",2,1,4,"AR_ARI",620,152,"AR","RESPONSE","CORRECT",0.8427734375,0.63999992609024,0.042773425579071,572.265747070312
"621","190801-13-27-14.603",15,"1.4.2",2,1,4,"AR_ARI",621,153,"ARI","NO_RESPONSE","CORRECT",1.0048828125,0.659999907016754,1000,839.999938964844
"622","190801-13-27-17.034",15,"1.4.2",2,1,4,"AR_ARI",622,154,"AR","RESPONSE","CORRECT",0.9111328125,0.659999907016754,0.111132800579071,0
"623","190801-13-27-19.410",15,"1.4.2",2,1,4,"AR_ARI",623,155,"AR","RESPONSE","CORRECT",0.8525390625,0.659999907016754,0.052539050579071,474.609497070312
"624","190801-13-27-21.753",15,"1.4.2",2,1,4,"AR_ARI",624,156,"AR","RESPONSE","CORRECT",0.8232421875,0.659999907016754,0.023242175579071,767.578247070312
"625","190801-13-27-24.065",15,"1.4.2",2,1,4,"AR_ARI",625,157,"AR","RESPONSE","CORRECT",0.7890625,0.659999907016754,-0.010937511920929,890.624877929688
"626","190801-13-27-26.436",15,"1.4.2",2,1,4,"AR_ARI",626,158,"AR","RESPONSE","CORRECT",0.8505859375,0.659999907016754,0.050585925579071,494.140747070312
"627","190801-13-27-28.811",15,"1.4.2",2,1,4,"AR_ARI",627,159,"AR","RESPONSE","CORRECT",0.857421875,0.659999907016754,0.057421863079071,425.781372070312
"628","190801-13-27-31.180",15,"1.4.2",2,1,4,"AR_ARI",628,160,"AR","RESPONSE","CORRECT",0.84765625,0.659999907016754,0.047656238079071,523.437622070312
"629","190801-13-27-33.658",15,"1.4.2",2,1,4,"AR_ARI",629,161,"AR","RESPONSE","CORRECT",0.95556640625,0.659999907016754,0.155566394329071,0
"630","190801-13-27-35.971",15,"1.4.2",2,1,4,"AR_ARI",630,162,"AR","RESPONSE","CORRECT",0.7939453125,0.659999907016754,-0.00605469942092896,939.453002929688
"631","190801-13-27-38.337",15,"1.4.2",2,1,4,"AR_ARI",631,163,"AR","RESPONSE","CORRECT",0.84326171875,0.659999907016754,0.043261706829071,567.382934570312
"632","190801-13-27-40.649",15,"1.4.2",2,1,4,"AR_ARI",632,164,"ARI","RESPONSE","INCORRECT",0.7939453125,0.63999992609024,-1000,-540.000122070312
"633","190801-13-27-42.962",15,"1.4.2",2,1,4,"AR_ARI",633,165,"ARI","RESPONSE","INCORRECT",0.79443359375,0.619999945163727,-1000,-560.000061035156
"634","190801-13-27-45.329",15,"1.4.2",2,1,4,"AR_ARI",634,166,"AR","RESPONSE","CORRECT",0.8427734375,0.619999945163727,0.042773425579071,572.265747070312
"635","190801-13-27-47.706",15,"1.4.2",2,1,4,"AR_ARI",635,167,"AR","RESPONSE","CORRECT",0.85791015625,0.619999945163727,0.057910144329071,420.898559570312
"636","190801-13-27-50.009",15,"1.4.2",2,1,4,"AR_ARI",636,168,"AR","RESPONSE","CORRECT",0.779296875,0.619999945163727,-0.020703136920929,792.968627929688
"637","190801-13-27-52.370",15,"1.4.2",2,1,4,"AR_ARI",637,169,"AR","RESPONSE","CORRECT",0.837890625,0.619999945163727,0.037890613079071,621.093872070312
"638","190801-13-27-54.728",15,"1.4.2",2,1,4,"AR_ARI",638,170,"AR","RESPONSE","CORRECT",0.8330078125,0.619999945163727,0.033007800579071,669.921997070312
"639","190801-13-27-57.256",15,"1.4.2",2,1,4,"AR_ARI",639,171,"ARI","NO_RESPONSE","CORRECT",1.00439453125,0.63999992609024,1000,819.999938964844
"640","190801-13-27-59.642",15,"1.4.2",2,1,4,"AR_ARI",640,172,"AR","RESPONSE","CORRECT",0.8623046875,0.63999992609024,0.062304675579071,376.953247070312
"641","190801-13-28-02.048",15,"1.4.2",2,1,4,"AR_ARI",641,173,"ARI","RESPONSE","INCORRECT",0.8818359375,0.619999945163727,-1000,-560.000061035156
"642","190801-13-28-04.499",15,"1.4.2",2,1,4,"AR_ARI",642,174,"AR","RESPONSE","CORRECT",0.93115234375,0.619999945163727,0.131152331829071,0
"643","190801-13-28-07.022",15,"1.4.2",2,1,4,"AR_ARI",643,175,"ARI","NO_RESPONSE","CORRECT",1.00439453125,0.63999992609024,1000,819.999938964844
"644","190801-13-28-09.550",15,"1.4.2",2,1,4,"AR_ARI",644,176,"ARI","NO_RESPONSE","CORRECT",1.00439453125,0.659999907016754,1000,839.999938964844
"645","190801-13-28-11.892",15,"1.4.2",2,1,4,"AR_ARI",645,177,"AR","RESPONSE","CORRECT",0.8232421875,0.659999907016754,0.023242175579071,767.578247070312
"646","190801-13-28-14.248",15,"1.4.2",2,1,4,"AR_ARI",646,178,"ARI","RESPONSE","INCORRECT",0.83349609375,0.63999992609024,-1000,-540.000122070312
"647","190801-13-28-16.772",15,"1.4.2",2,1,4,"AR_ARI",647,179,"ARI","NO_RESPONSE","CORRECT",1.0048828125,0.659999907016754,1000,839.999938964844
"648","190801-13-28-19.218",15,"1.4.2",2,1,4,"AR_ARI",648,180,"AR","RESPONSE","CORRECT",0.92138671875,0.659999907016754,0.121386706829071,0
"649","190801-13-28-21.585",15,"1.4.2",2,1,4,"AR_ARI",649,181,"AR","RESPONSE","CORRECT",0.8525390625,0.659999907016754,0.052539050579071,474.609497070312
"650","190801-13-28-23.960",15,"1.4.2",2,1,4,"AR_ARI",650,182,"ARI","RESPONSE","INCORRECT",0.85791015625,0.63999992609024,-1000,-540.000122070312
"651","190801-13-28-26.352",15,"1.4.2",2,1,4,"AR_ARI",651,183,"AR","RESPONSE","CORRECT",0.8671875,0.63999992609024,0.067187488079071,328.125122070312
"652","190801-13-28-28.763",15,"1.4.2",2,1,4,"AR_ARI",652,184,"AR","RESPONSE","CORRECT",0.88671875,0.63999992609024,0.086718738079071,132.812622070312
"653","190801-13-28-36.050",15,"1.4.2",2,1,5,"AR_ARI",653,1,"AR","RESPONSE","CORRECT",0.7451171875,0.63999992609024,-0.054882824420929,451.171752929688
"654","190801-13-28-38.377",15,"1.4.2",2,1,5,"AR_ARI",654,2,"AR","RESPONSE","CORRECT",0.8037109375,0.63999992609024,0.00371092557907104,962.890747070312
"655","190801-13-28-40.700",15,"1.4.2",2,1,5,"AR_ARI",655,3,"AR","RESPONSE","CORRECT",0.798828125,0.63999992609024,-0.00117188692092896,988.281127929688
"656","190801-13-28-43.041",15,"1.4.2",2,1,5,"AR_ARI",656,4,"ARI","RESPONSE","INCORRECT",0.81787109375,0.619999945163727,-1000,-560.000061035156
"657","190801-13-28-45.398",15,"1.4.2",2,1,5,"AR_ARI",657,5,"AR","RESPONSE","CORRECT",0.8330078125,0.619999945163727,0.033007800579071,669.921997070312
"658","190801-13-28-47.922",15,"1.4.2",2,1,5,"AR_ARI",658,6,"ARI","NO_RESPONSE","CORRECT",1.00439453125,0.63999992609024,1000,819.999938964844
"659","190801-13-28-50.445",15,"1.4.2",2,1,5,"AR_ARI",659,7,"ARI","NO_RESPONSE","CORRECT",1.00439453125,0.659999907016754,1000,839.999938964844
